File: XRD_data/W6725/XRD_Omega/_Cr2O3_scan_omega_2deg_step_0.002deg0_W6725.xy
30.50470 2567.0
30.50670 2415.0
30.50870 2468.0
30.51070 2531.0
30.51270 2577.0
30.51470 2545.0
30.51670 2611.0
30.51870 2468.0
30.52070 2565.0
30.52270 2616.0
30.52470 2598.0
30.52670 2679.0
30.52870 2647.0
30.53070 2695.0
30.53270 2625.0
30.53470 2669.0
30.53670 2701.0
30.53870 2723.0
30.54070 2716.0
30.54270 2659.0
30.54470 2700.0
30.54670 2844.0
30.54870 2807.0
30.55070 2798.0
30.55270 2783.0
30.55470 2894.0
30.55670 2798.0
30.55870 2867.0
30.56070 2915.0
30.56270 3017.0
30.56470 2929.0
30.56670 2827.0
30.56870 3005.0
30.57070 2997.0
30.57270 2937.0
30.57470 3087.0
30.57670 3074.0
30.57870 3109.0
30.58070 3053.0
30.58270 3033.0
30.58470 3195.0
30.58670 2987.0
30.58870 3126.0
30.59070 3151.0
30.59270 3209.0
30.59470 3222.0
30.59670 3189.0
30.59870 3280.0
30.60070 3194.0
30.60270 3248.0
30.60470 3269.0
30.60670 3231.0
30.60870 3308.0
30.61070 3314.0
30.61270 3363.0
30.61470 3287.0
30.61670 3331.0
30.61870 3354.0
30.62070 3573.0
30.62270 3541.0
30.62470 3456.0
30.62670 3408.0
30.62870 3540.0
30.63070 3522.0
30.63270 3577.0
30.63470 3683.0
30.63670 3684.0
30.63870 3742.0
30.64070 3700.0
30.64270 3712.0
30.64470 3602.0
30.64670 3742.0
30.64870 3672.0
30.65070 3670.0
30.65270 3939.0
30.65470 3737.0
30.65670 3837.0
30.65870 3833.0
30.66070 3935.0
30.66270 3941.0
30.66470 3898.0
30.66670 3973.0
30.66870 4021.0
30.67070 4005.0
30.67270 3872.0
30.67470 4098.0
30.67670 4016.0
30.67870 4148.0
30.68070 4074.0
30.68270 4177.0
30.68470 4206.0
30.68670 4151.0
30.68870 4258.0
30.69070 4231.0
30.69270 4177.0
30.69470 4184.0
30.69670 4198.0
30.69870 4398.0
30.70070 4379.0
30.70270 4375.0
30.70470 4532.0
30.70670 4398.0
30.70870 4527.0
30.71070 4502.0
30.71270 4576.0
30.71470 4464.0
30.71670 4669.0
30.71870 4558.0
30.72070 4683.0
30.72270 4622.0
30.72470 4610.0
30.72670 4691.0
30.72870 4683.0
30.73070 4672.0
30.73270 4890.0
30.73470 4802.0
30.73670 4839.0
30.73870 4893.0
30.74070 4976.0
30.74270 4930.0
30.74470 5046.0
30.74670 5056.0
30.74870 5120.0
30.75070 5076.0
30.75270 5127.0
30.75470 5143.0
30.75670 5082.0
30.75870 5067.0
30.76070 5205.0
30.76270 5257.0
30.76470 5303.0
30.76670 5308.0
30.76870 5448.0
30.77070 5397.0
30.77270 5425.0
30.77470 5492.0
30.77670 5382.0
30.77870 5502.0
30.78070 5715.0
30.78270 5509.0
30.78470 5515.0
30.78670 5561.0
30.78870 5641.0
30.79070 5690.0
30.79270 5829.0
30.79470 5782.0
30.79670 5745.0
30.79870 5882.0
30.80070 6022.0
30.80270 5980.0
30.80470 5878.0
30.80670 5915.0
30.80870 6043.0
30.81070 6210.0
30.81270 6184.0
30.81470 6077.0
30.81670 6163.0
30.81870 6287.0
30.82070 6164.0
30.82270 6230.0
30.82470 6351.0
30.82670 6280.0
30.82870 6359.0
30.83070 6475.0
30.83270 6472.0
30.83470 6519.0
30.83670 6442.0
30.83870 6567.0
30.84070 6551.0
30.84270 6603.0
30.84470 6703.0
30.84670 6772.0
30.84870 6601.0
30.85070 6777.0
30.85270 6810.0
30.85470 6792.0
30.85670 7080.0
30.85870 6953.0
30.86070 6866.0
30.86270 6962.0
30.86470 6940.0
30.86670 7190.0
30.86870 7239.0
30.87070 7053.0
30.87270 7349.0
30.87470 7430.0
30.87670 7507.0
30.87870 7341.0
30.88070 7259.0
30.88270 7450.0
30.88470 7421.0
30.88670 7616.0
30.88870 7578.0
30.89070 7684.0
30.89270 7680.0
30.89470 7556.0
30.89670 7908.0
30.89870 7917.0
30.90070 7784.0
30.90270 7776.0
30.90470 7941.0
30.90670 7960.0
30.90870 8181.0
30.91070 8144.0
30.91270 8223.0
30.91470 8106.0
30.91670 8147.0
30.91870 8369.0
30.92070 8215.0
30.92270 8260.0
30.92470 8312.0
30.92670 8401.0
30.92870 8623.0
30.93070 8558.0
30.93270 8623.0
30.93470 8636.0
30.93670 8845.0
30.93870 8809.0
30.94070 9052.0
30.94270 9154.0
30.94470 9023.0
30.94670 8838.0
30.94870 9086.0
30.95070 9261.0
30.95270 9284.0
30.95470 9203.0
30.95670 9290.0
30.95870 9339.0
30.96070 9390.0
30.96270 9401.0
30.96470 9278.0
30.96670 9462.0
30.96870 9722.0
30.97070 9573.0
30.97270 9679.0
30.97470 9730.0
30.97670 9766.0
30.97870 9905.0
30.98070 10089.0
30.98270 9987.0
30.98470 9941.0
30.98670 10156.0
30.98870 10051.0
30.99070 10256.0
30.99270 10017.0
30.99470 10318.0
30.99670 10268.0
30.99870 10445.0
31.00070 10504.0
31.00270 10449.0
31.00470 10781.0
31.00670 10582.0
31.00870 10653.0
31.01070 10592.0
31.01270 11058.0
31.01470 10992.0
31.01670 10945.0
31.01870 11166.0
31.02070 11187.0
31.02270 11326.0
31.02470 11055.0
31.02670 11326.0
31.02870 11341.0
31.03070 11351.0
31.03270 11507.0
31.03470 11675.0
31.03670 11640.0
31.03870 11632.0
31.04070 11780.0
31.04270 11860.0
31.04470 11850.0
31.04670 11801.0
31.04870 12120.0
31.05070 12017.0
31.05270 12153.0
31.05470 12329.0
31.05670 12421.0
31.05870 12532.0
31.06070 12726.0
31.06270 12390.0
31.06470 12758.0
31.06670 12652.0
31.06870 12455.0
31.07070 12905.0
31.07270 12880.0
31.07470 13168.0
31.07670 13216.0
31.07870 13358.0
31.08070 13118.0
31.08270 13367.0
31.08470 13336.0
31.08670 13439.0
31.08870 13716.0
31.09070 13717.0
31.09270 13715.0
31.09470 13900.0
31.09670 13699.0
31.09870 13804.0
31.10070 13878.0
31.10270 14047.0
31.10470 14091.0
31.10670 13768.0
31.10870 13993.0
31.11070 14425.0
31.11270 14300.0
31.11470 14486.0
31.11670 14458.0
31.11870 14372.0
31.12070 14397.0
31.12270 14760.0
31.12470 14705.0
31.12670 14699.0
31.12870 14798.0
31.13070 15037.0
31.13270 15244.0
31.13470 15148.0
31.13670 15279.0
31.13870 15185.0
31.14070 15519.0
31.14270 15302.0
31.14470 15381.0
31.14670 15449.0
31.14870 15669.0
31.15070 15865.0
31.15270 15917.0
31.15470 16046.0
31.15670 16107.0
31.15870 16045.0
31.16070 16103.0
31.16270 16195.0
31.16470 16273.0
31.16670 16576.0
31.16870 16477.0
31.17070 16621.0
31.17270 16681.0
31.17470 16612.0
31.17670 16750.0
31.17870 16857.0
31.18070 16750.0
31.18270 16928.0
31.18470 17129.0
31.18670 17126.0
31.18870 17399.0
31.19070 17067.0
31.19270 17557.0
31.19470 17206.0
31.19670 17254.0
31.19870 17284.0
31.20070 17738.0
31.20270 17927.0
31.20470 17810.0
31.20670 17923.0
31.20870 17860.0
31.21070 18186.0
31.21270 17842.0
31.21470 18184.0
31.21670 18286.0
31.21870 18266.0
31.22070 18357.0
31.22270 18510.0
31.22470 18341.0
31.22670 18447.0
31.22870 18548.0
31.23070 18895.0
31.23270 18700.0
31.23470 18929.0
31.23670 18951.0
31.23870 19155.0
31.24070 19066.0
31.24270 19118.0
31.24470 19399.0
31.24670 19563.0
31.24870 19558.0
31.25070 19319.0
31.25270 19604.0
31.25470 19781.0
31.25670 19702.0
31.25870 19852.0
31.26070 20092.0
31.26270 20033.0
31.26470 20179.0
31.26670 20143.0
31.26870 20147.0
31.27070 20301.0
31.27270 20401.0
31.27470 20370.0
31.27670 20642.0
31.27870 20644.0
31.28070 20717.0
31.28270 20871.0
31.28470 20815.0
31.28670 21245.0
31.28870 21102.0
31.29070 21124.0
31.29270 21068.0
31.29470 21084.0
31.29670 21149.0
31.29870 21429.0
31.30070 21660.0
31.30270 21293.0
31.30470 21582.0
31.30670 21513.0
31.30870 21570.0
31.31070 21708.0
31.31270 21818.0
31.31470 22086.0
31.31670 21919.0
31.31870 22382.0
31.32070 22284.0
31.32270 22473.0
31.32470 22271.0
31.32670 22409.0
31.32870 22687.0
31.33070 22319.0
31.33270 22822.0
31.33470 22701.0
31.33670 22955.0
31.33870 23138.0
31.34070 23311.0
31.34270 23204.0
31.34470 23418.0
31.34670 23713.0
31.34870 23128.0
31.35070 23646.0
31.35270 23520.0
31.35470 23659.0
31.35670 23439.0
31.35870 23585.0
31.36070 23624.0
31.36270 23432.0
31.36470 23736.0
31.36670 23796.0
31.36870 24113.0
31.37070 24150.0
31.37270 24209.0
31.37470 23882.0
31.37670 24243.0
31.37870 24023.0
31.38070 24008.0
31.38270 24257.0
31.38470 24636.0
31.38670 24506.0
31.38870 24465.0
31.39070 24319.0
31.39270 24382.0
31.39470 24365.0
31.39670 24490.0
31.39870 24526.0
31.40070 24762.0
31.40270 24775.0
31.40470 24267.0
31.40670 24536.0
31.40870 24676.0
31.41070 24630.0
31.41270 24539.0
31.41470 24538.0
31.41670 24708.0
31.41870 24881.0
31.42070 24711.0
31.42270 24973.0
31.42470 24838.0
31.42670 24927.0
31.42870 24712.0
31.43070 24976.0
31.43270 24895.0
31.43470 25065.0
31.43670 25070.0
31.43870 25127.0
31.44070 24999.0
31.44270 25419.0
31.44470 25182.0
31.44670 25422.0
31.44870 25600.0
31.45070 25188.0
31.45270 25467.0
31.45470 25576.0
31.45670 25573.0
31.45870 25593.0
31.46070 25600.0
31.46270 25687.0
31.46470 25718.0
31.46670 25710.0
31.46870 25913.0
31.47070 25813.0
31.47270 26081.0
31.47470 25932.0
31.47670 25653.0
31.47870 25879.0
31.48070 25701.0
31.48270 25738.0
31.48470 25989.0
31.48670 25549.0
31.48870 25868.0
31.49070 25937.0
31.49270 25744.0
31.49470 25867.0
31.49670 25788.0
31.49870 25549.0
31.50070 25698.0
31.50270 25706.0
31.50470 25819.0
31.50670 25541.0
31.50870 25913.0
31.51070 26035.0
31.51270 26187.0
31.51470 26013.0
31.51670 26332.0
31.51870 26413.0
31.52070 26021.0
31.52270 25907.0
31.52470 25952.0
31.52670 26339.0
31.52870 26126.0
31.53070 26134.0
31.53270 26202.0
31.53470 26101.0
31.53670 26118.0
31.53870 26155.0
31.54070 26019.0
31.54270 26153.0
31.54470 26106.0
31.54670 26189.0
31.54870 26059.0
31.55070 25812.0
31.55270 26196.0
31.55470 26043.0
31.55670 26007.0
31.55870 26098.0
31.56070 26166.0
31.56270 25837.0
31.56470 26077.0
31.56670 25911.0
31.56870 25894.0
31.57070 26064.0
31.57270 26412.0
31.57470 26144.0
31.57670 25762.0
31.57870 25980.0
31.58070 25850.0
31.58270 25807.0
31.58470 25895.0
31.58670 25989.0
31.58870 25801.0
31.59070 25482.0
31.59270 25541.0
31.59470 26148.0
31.59670 25888.0
31.59870 25503.0
31.60070 25945.0
31.60270 25670.0
31.60470 25476.0
31.60670 25880.0
31.60870 25816.0
31.61070 25704.0
31.61270 25505.0
31.61470 25759.0
31.61670 25497.0
31.61870 25216.0
31.62070 25512.0
31.62270 25568.0
31.62470 25391.0
31.62670 25253.0
31.62870 25416.0
31.63070 25232.0
31.63270 25270.0
31.63470 25007.0
31.63670 24993.0
31.63870 24931.0
31.64070 25074.0
31.64270 25113.0
31.64470 25012.0
31.64670 24416.0
31.64870 24913.0
31.65070 24543.0
31.65270 24691.0
31.65470 24730.0
31.65670 24457.0
31.65870 24870.0
31.66070 24665.0
31.66270 24484.0
31.66470 24662.0
31.66670 24427.0
31.66870 24410.0
31.67070 24195.0
31.67270 24010.0
31.67470 24237.0
31.67670 23816.0
31.67870 24040.0
31.68070 24290.0
31.68270 23703.0
31.68470 24041.0
31.68670 23680.0
31.68870 23312.0
31.69070 23435.0
31.69270 23303.0
31.69470 23140.0
31.69670 23663.0
31.69870 23522.0
31.70070 23699.0
31.70270 23492.0
31.70470 23524.0
31.70670 23402.0
31.70870 23060.0
31.71070 23292.0
31.71270 23484.0
31.71470 23458.0
31.71670 23139.0
31.71870 23066.0
31.72070 22375.0
31.72270 22735.0
31.72470 22643.0
31.72670 22808.0
31.72870 22729.0
31.73070 22659.0
31.73270 22359.0
31.73470 22639.0
31.73670 22386.0
31.73870 22048.0
31.74070 22368.0
31.74270 22199.0
31.74470 22240.0
31.74670 21811.0
31.74870 21948.0
31.75070 21935.0
31.75270 22114.0
31.75470 21658.0
31.75670 21732.0
31.75870 21720.0
31.76070 21798.0
31.76270 21794.0
31.76470 21496.0
31.76670 21343.0
31.76870 21476.0
31.77070 21367.0
31.77270 21266.0
31.77470 21456.0
31.77670 21236.0
31.77870 20929.0
31.78070 21048.0
31.78270 20771.0
31.78470 20830.0
31.78670 20764.0
31.78870 20397.0
31.79070 20492.0
31.79270 20502.0
31.79470 20611.0
31.79670 20368.0
31.79870 20629.0
31.80070 20228.0
31.80270 20455.0
31.80470 20227.0
31.80670 20074.0
31.80870 19817.0
31.81070 20007.0
31.81270 19744.0
31.81470 19670.0
31.81670 19707.0
31.81870 19369.0
31.82070 19388.0
31.82270 19401.0
31.82470 19294.0
31.82670 19467.0
31.82870 19380.0
31.83070 19137.0
31.83270 18924.0
31.83470 18888.0
31.83670 18919.0
31.83870 18636.0
31.84070 18461.0
31.84270 18630.0
31.84470 18443.0
31.84670 18494.0
31.84870 18500.0
31.85070 18183.0
31.85270 18332.0
31.85470 18306.0
31.85670 17891.0
31.85870 17874.0
31.86070 18046.0
31.86270 17708.0
31.86470 17366.0
31.86670 17797.0
31.86870 17563.0
31.87070 17426.0
31.87270 17202.0
31.87470 17229.0
31.87670 17091.0
31.87870 17373.0
31.88070 17397.0
31.88270 17291.0
31.88470 17175.0
31.88670 17063.0
31.88870 17272.0
31.89070 17078.0
31.89270 16991.0
31.89470 16746.0
31.89670 16737.0
31.89870 16802.0
31.90070 16739.0
31.90270 16813.0
31.90470 16741.0
31.90670 16361.0
31.90870 16272.0
31.91070 16296.0
31.91270 16304.0
31.91470 16001.0
31.91670 16028.0
31.91870 16024.0
31.92070 15886.0
31.92270 15900.0
31.92470 15837.0
31.92670 16104.0
31.92870 15740.0
31.93070 15507.0
31.93270 15430.0
31.93470 15675.0
31.93670 15534.0
31.93870 15505.0
31.94070 15360.0
31.94270 15125.0
31.94470 15019.0
31.94670 14948.0
31.94870 14921.0
31.95070 14910.0
31.95270 14823.0
31.95470 14795.0
31.95670 14780.0
31.95870 14447.0
31.96070 14396.0
31.96270 14502.0
31.96470 14384.0
31.96670 14119.0
31.96870 14312.0
31.97070 14248.0
31.97270 13808.0
31.97470 13789.0
31.97670 13990.0
31.97870 13855.0
31.98070 13801.0
31.98270 13661.0
31.98470 13695.0
31.98670 13597.0
31.98870 13525.0
31.99070 13604.0
31.99270 13375.0
31.99470 13221.0
31.99670 13324.0
31.99870 13228.0
32.00070 13143.0
32.00270 13131.0
32.00470 12778.0
32.00670 12989.0
32.00870 12807.0
32.01070 12650.0
32.01270 12717.0
32.01470 12387.0
32.01670 12457.0
32.01870 12374.0
32.02070 12409.0
32.02270 12330.0
32.02470 12306.0
32.02670 12347.0
32.02870 12155.0
32.03070 12066.0
32.03270 11960.0
32.03470 11993.0
32.03670 12028.0
32.03870 11893.0
32.04070 11828.0
32.04270 11564.0
32.04470 11460.0
32.04670 11610.0
32.04870 11424.0
32.05070 11288.0
32.05270 11103.0
32.05470 11192.0
32.05670 11134.0
32.05870 11008.0
32.06070 11060.0
32.06270 10869.0
32.06470 10783.0
32.06670 11046.0
32.06870 10859.0
32.07070 10830.0
32.07270 10744.0
32.07470 10659.0
32.07670 10695.0
32.07870 10483.0
32.08070 10550.0
32.08270 10470.0
32.08470 10388.0
32.08670 10321.0
32.08870 10167.0
32.09070 10073.0
32.09270 10018.0
32.09470 10099.0
32.09670 9784.0
32.09870 10132.0
32.10070 10051.0
32.10270 9809.0
32.10470 9869.0
32.10670 9678.0
32.10870 9742.0
32.11070 9638.0
32.11270 9742.0
32.11470 9432.0
32.11670 9489.0
32.11870 9378.0
32.12070 9410.0
32.12270 9417.0
32.12470 9369.0
32.12670 9246.0
32.12870 9150.0
32.13070 9433.0
32.13270 8955.0
32.13470 9417.0
32.13670 8752.0
32.13870 8775.0
32.14070 8867.0
32.14270 8774.0
32.14470 8761.0
32.14670 8676.0
32.14870 8656.0
32.15070 8589.0
32.15270 8563.0
32.15470 8549.0
32.15670 8386.0
32.15870 8596.0
32.16070 8303.0
32.16270 8288.0
32.16470 8304.0
32.16670 8246.0
32.16870 8118.0
32.17070 8210.0
32.17270 8184.0
32.17470 7878.0
32.17670 7829.0
32.17870 7998.0
32.18070 7888.0
32.18270 7832.0
32.18470 7726.0
32.18670 7743.0
32.18870 7703.0
32.19070 7767.0
32.19270 7758.0
32.19470 7709.0
32.19670 7529.0
32.19870 7393.0
32.20070 7571.0
32.20270 7349.0
32.20470 7223.0
32.20670 7351.0
32.20870 7364.0
32.21070 7233.0
32.21270 7330.0
32.21470 7163.0
32.21670 7150.0
32.21870 6992.0
32.22070 6972.0
32.22270 6884.0
32.22470 6897.0
32.22670 6929.0
32.22870 6984.0
32.23070 6890.0
32.23270 6930.0
32.23470 6902.0
32.23670 6686.0
32.23870 6615.0
32.24070 6695.0
32.24270 6627.0
32.24470 6756.0
32.24670 6609.0
32.24870 6543.0
32.25070 6492.0
32.25270 6490.0
32.25470 6481.0
32.25670 6424.0
32.25870 6478.0
32.26070 6293.0
32.26270 6247.0
32.26470 6141.0
32.26670 6119.0
32.26870 6022.0
32.27070 6166.0
32.27270 6040.0
32.27470 6041.0
32.27670 6011.0
32.27870 5848.0
32.28070 5860.0
32.28270 5874.0
32.28470 5777.0
32.28670 5780.0
32.28870 5862.0
32.29070 5742.0
32.29270 5702.0
32.29470 5677.0
32.29670 5684.0
32.29870 5727.0
32.30070 5695.0
32.30270 5600.0
32.30470 5592.0
32.30670 5496.0
32.30870 5403.0
32.31070 5285.0
32.31270 5467.0
32.31470 5357.0
32.31670 5326.0
32.31870 5335.0
32.32070 5249.0
32.32270 5282.0
32.32470 5149.0
32.32670 5184.0
32.32870 5094.0
32.33070 5192.0
32.33270 5147.0
32.33470 5107.0
32.33670 4977.0
32.33870 4947.0
32.34070 5003.0
32.34270 4990.0
32.34470 4911.0
32.34670 4825.0
32.34870 4847.0
32.35070 4724.0
32.35270 4964.0
32.35470 4717.0
32.35670 4656.0
32.35870 4633.0
32.36070 4593.0
32.36270 4664.0
32.36470 4615.0
32.36670 4509.0
32.36870 4511.0
32.37070 4588.0
32.37270 4497.0
32.37470 4561.0
32.37670 4463.0
32.37870 4473.0
32.38070 4449.0
32.38270 4267.0
32.38470 4383.0
32.38670 4296.0
32.38870 4270.0
32.39070 4370.0
32.39270 4400.0
32.39470 4169.0
32.39670 4256.0
32.39870 4190.0
32.40070 4191.0
32.40270 4093.0
32.40470 4033.0
32.40670 4161.0
32.40870 4080.0
32.41070 4148.0
32.41270 4145.0
32.41470 4039.0
32.41670 3946.0
32.41870 3944.0
32.42070 3894.0
32.42270 4039.0
32.42470 4027.0
32.42670 3954.0
32.42870 3868.0
32.43070 3915.0
32.43270 3832.0
32.43470 3862.0
32.43670 3775.0
32.43870 3688.0
32.44070 3689.0
32.44270 3626.0
32.44470 3696.0
32.44670 3688.0
32.44870 3613.0
32.45070 3761.0
32.45270 3592.0
32.45470 3633.0
32.45670 3609.0
32.45870 3607.0
32.46070 3491.0
32.46270 3458.0
32.46470 3471.0
32.46670 3530.0
32.46870 3530.0
32.47070 3453.0
32.47270 3380.0
32.47470 3435.0
32.47670 3361.0
32.47870 3314.0
32.48070 3313.0
32.48270 3382.0
32.48470 3319.0
32.48670 3314.0
32.48870 3376.0