File: XRD_data/W6725/XRD_2ThetaOmega/W6725_absolute_2th-om_10-130deg_17min.xy
10.0035 26.0
10.0872 15.0
10.1709 25.0
10.2546 33.0
10.3383 31.0
10.422 17.0
10.5057 26.0
10.5894 24.0
10.6731 20.0
10.7568 14.0
10.8405 24.0
10.9242 16.0
11.0079 25.0
11.0916 21.0
11.1753 26.0
11.259 30.0
11.3428 20.0
11.4265 15.0
11.5102 21.0
11.5939 26.0
11.6776 25.0
11.7613 23.0
11.845 24.0
11.9287 30.0
12.0124 16.0
12.0961 20.0
12.1798 24.0
12.2635 19.0
12.3472 23.0
12.4309 25.0
12.5146 24.0
12.5983 22.0
12.682 20.0
12.7657 22.0
12.8495 29.0
12.9332 26.0
13.0169 22.0
13.1006 28.0
13.1843 26.0
13.268 34.0
13.3517 23.0
13.4354 23.0
13.5191 28.0
13.6028 24.0
13.6865 30.0
13.7702 27.0
13.8539 22.0
13.9376 11.0
14.0213 22.0
14.105 19.0
14.1887 27.0
14.2724 18.0
14.3562 15.0
14.4399 19.0
14.5236 25.0
14.6073 23.0
14.691 22.0
14.7747 21.0
14.8584 30.0
14.9421 32.0
15.0258 21.0
15.1095 19.0
15.1932 20.0
15.2769 17.0
15.3606 28.0
15.4443 21.0
15.528 24.0
15.6117 19.0
15.6954 17.0
15.7791 19.0
15.8629 19.0
15.9466 23.0
16.0303 16.0
16.114 16.0
16.1977 18.0
16.2814 20.0
16.3651 17.0
16.4488 11.0
16.5325 24.0
16.6162 11.0
16.6999 15.0
16.7836 28.0
16.8673 18.0
16.951 17.0
17.0347 17.0
17.1184 18.0
17.2021 19.0
17.2858 17.0
17.3696 18.0
17.4533 16.0
17.537 19.0
17.6207 13.0
17.7044 13.0
17.7881 13.0
17.8718 15.0
17.9555 14.0
18.0392 11.0
18.1229 21.0
18.2066 12.0
18.2903 11.0
18.374 9.0
18.4577 20.0
18.5414 12.0
18.6251 20.0
18.7088 15.0
18.7925 13.0
18.8763 16.0
18.96 17.0
19.0437 19.0
19.1274 12.0
19.2111 19.0
19.2948 16.0
19.3785 13.0
19.4622 16.0
19.5459 14.0
19.6296 11.0
19.7133 20.0
19.797 11.0
19.8807 11.0
19.9644 10.0
20.0481 19.0
20.1318 13.0
20.2155 19.0
20.2992 12.0
20.383 14.0
20.4667 17.0
20.5504 13.0
20.6341 11.0
20.7178 17.0
20.8015 19.0
20.8852 15.0
20.9689 12.0
21.0526 16.0
21.1363 14.0
21.22 5.0
21.3037 10.0
21.3874 17.0
21.4711 13.0
21.5548 11.0
21.6385 12.0
21.7222 14.0
21.8059 13.0
21.8897 9.0
21.9734 11.0
22.0571 13.0
22.1408 9.0
22.2245 10.0
22.3082 12.0
22.3919 7.0
22.4756 6.0
22.5593 12.0
22.643 5.0
22.7267 5.0
22.8104 12.0
22.8941 7.0
22.9778 9.0
23.0615 10.0
23.1452 11.0
23.2289 8.0
23.3126 9.0
23.3964 7.0
23.4801 5.0
23.5638 11.0
23.6475 4.0
23.7312 13.0
23.8149 8.0
23.8986 9.0
23.9823 9.0
24.066 4.0
24.1497 13.0
24.2334 8.0
24.3171 15.0
24.4008 11.0
24.4845 8.0
24.5682 8.0
24.6519 6.0
24.7356 6.0
24.8193 7.0
24.9031 3.0
24.9868 12.0
25.0705 14.0
25.1542 10.0
25.2379 10.0
25.3216 10.0
25.4053 9.0
25.489 4.0
25.5727 9.0
25.6564 12.0
25.7401 14.0
25.8238 9.0
25.9075 5.0
25.9912 7.0
26.0749 5.0
26.1586 8.0
26.2423 10.0
26.326 13.0
26.4098 6.0
26.4935 7.0
26.5772 6.0
26.6609 15.0
26.7446 8.0
26.8283 8.0
26.912 7.0
26.9957 13.0
27.0794 7.0
27.1631 12.0
27.2468 3.0
27.3305 8.0
27.4142 10.0
27.4979 7.0
27.5816 6.0
27.6653 7.0
27.749 10.0
27.8327 2.0
27.9165 8.0
28.0002 13.0
28.0839 4.0
28.1676 7.0
28.2513 8.0
28.335 9.0
28.4187 11.0
28.5024 9.0
28.5861 8.0
28.6698 9.0
28.7535 11.0
28.8372 5.0
28.9209 5.0
29.0046 6.0
29.0883 8.0
29.172 3.0
29.2557 7.0
29.3394 8.0
29.4232 5.0
29.5069 5.0
29.5906 12.0
29.6743 8.0
29.758 3.0
29.8417 7.0
29.9254 6.0
30.0091 1.0
30.0928 10.0
30.1765 9.0
30.2602 5.0
30.3439 7.0
30.4276 4.0
30.5113 9.0
30.595 6.0
30.6787 3.0
30.7624 10.0
30.8461 13.0
30.9298 6.0
31.0136 4.0
31.0973 3.0
31.181 10.0
31.2647 7.0
31.3484 5.0
31.4321 7.0
31.5158 6.0
31.5995 10.0
31.6832 6.0
31.7669 7.0
31.8506 8.0
31.9343 6.0
32.018 3.0
32.1017 10.0
32.1854 5.0
32.2691 3.0
32.3528 5.0
32.4365 10.0
32.5203 4.0
32.604 9.0
32.6877 4.0
32.7714 9.0
32.8551 7.0
32.9388 10.0
33.0225 5.0
33.1062 6.0
33.1899 4.0
33.2736 4.0
33.3573 4.0
33.441 4.0
33.5247 6.0
33.6084 5.0
33.6921 6.0
33.7758 8.0
33.8595 1.0
33.9432 2.0
34.027 6.0
34.1107 6.0
34.1944 6.0
34.2781 5.0
34.3618 3.0
34.4455 6.0
34.5292 4.0
34.6129 4.0
34.6966 4.0
34.7803 6.0
34.864 3.0
34.9477 7.0
35.0314 1.0
35.1151 5.0
35.1988 6.0
35.2825 6.0
35.3662 1.0
35.4499 1.0
35.5337 3.0
35.6174 3.0
35.7011 4.0
35.7848 8.0
35.8685 6.0
35.9522 2.0
36.0359 6.0
36.1196 6.0
36.2033 10.0
36.287 5.0
36.3707 4.0
36.4544 5.0
36.5381 2.0
36.6218 4.0
36.7055 1.0
36.7892 6.0
36.8729 10.0
36.9566 4.0
37.0404 1.0
37.1241 3.0
37.2078 1.0
37.2915 7.0
37.3752 6.0
37.4589 1.0
37.5426 7.0
37.6263 2.0
37.71 9.0
37.7937 2.0
37.8774 6.0
37.9611 3.0
38.0448 10.0
38.1285 3.0
38.2122 3.0
38.2959 7.0
38.3796 3.0
38.4633 3.0
38.5471 3.0
38.6308 0.0
38.7145 6.0
38.7982 5.0
38.8819 9.0
38.9656 1.0
39.0493 5.0
39.133 0.0
39.2167 7.0
39.3004 8.0
39.3841 4.0
39.4678 2.0
39.5515 2.0
39.6352 4.0
39.7189 8.0
39.8026 5.0
39.8863 3.0
39.97 4.0
40.0538 3.0
40.1375 5.0
40.2212 5.0
40.3049 3.0
40.3886 2.0
40.4723 2.0
40.556 6.0
40.6397 4.0
40.7234 3.0
40.8071 1.0
40.8908 3.0
40.9745 6.0
41.0582 1.0
41.1419 8.0
41.2256 4.0
41.3093 5.0
41.393 7.0
41.4767 4.0
41.5605 3.0
41.6442 4.0
41.7279 2.0
41.8116 3.0
41.8953 5.0
41.979 3.0
42.0627 0.0
42.1464 0.0
42.2301 3.0
42.3138 4.0
42.3975 3.0
42.4812 2.0
42.5649 6.0
42.6486 4.0
42.7323 5.0
42.816 4.0
42.8997 8.0
42.9834 4.0
43.0672 1.0
43.1509 2.0
43.2346 7.0
43.3183 0.0
43.402 6.0
43.4857 3.0
43.5694 3.0
43.6531 2.0
43.7368 1.0
43.8205 7.0
43.9042 8.0
43.9879 2.0
44.0716 4.0
44.1553 6.0
44.239 6.0
44.3227 4.0
44.4064 0.0
44.4901 9.0
44.5739 7.0
44.6576 6.0
44.7413 0.0
44.825 2.0
44.9087 1.0
44.9924 7.0
45.0761 2.0
45.1598 0.0
45.2435 8.0
45.3272 5.0
45.4109 6.0
45.4946 3.0
45.5783 3.0
45.662 4.0
45.7457 2.0
45.8294 3.0
45.9131 7.0
45.9968 3.0
46.0806 2.0
46.1643 3.0
46.248 3.0
46.3317 5.0
46.4154 3.0
46.4991 6.0
46.5828 2.0
46.6665 3.0
46.7502 7.0
46.8339 6.0
46.9176 5.0
47.0013 5.0
47.085 3.0
47.1687 3.0
47.2524 5.0
47.3361 3.0
47.4198 7.0
47.5035 2.0
47.5873 6.0
47.671 5.0
47.7547 1.0
47.8384 6.0
47.9221 3.0
48.0058 1.0
48.0895 1.0
48.1732 7.0
48.2569 3.0
48.3406 0.0
48.4243 5.0
48.508 1.0
48.5917 8.0
48.6754 4.0
48.7591 5.0
48.8428 6.0
48.9265 3.0
49.0102 2.0
49.094 2.0
49.1777 0.0
49.2614 9.0
49.3451 4.0
49.4288 3.0
49.5125 2.0
49.5962 5.0
49.6799 2.0
49.7636 7.0
49.8473 2.0
49.931 5.0
50.0147 3.0
50.0984 8.0
50.1821 6.0
50.2658 4.0
50.3495 3.0
50.4332 1.0
50.5169 6.0
50.6007 4.0
50.6844 3.0
50.7681 3.0
50.8518 0.0
50.9355 1.0
51.0192 1.0
51.1029 7.0
51.1866 4.0
51.2703 5.0
51.354 7.0
51.4377 5.0
51.5214 4.0
51.6051 4.0
51.6888 2.0
51.7725 7.0
51.8562 5.0
51.9399 2.0
52.0236 6.0
52.1074 4.0
52.1911 1.0
52.2748 3.0
52.3585 6.0
52.4422 2.0
52.5259 5.0
52.6096 3.0
52.6933 10.0
52.777 3.0
52.8607 9.0
52.9444 7.0
53.0281 3.0
53.1118 7.0
53.1955 5.0
53.2792 2.0
53.3629 8.0
53.4466 1.0
53.5303 13.0
53.6141 10.0
53.6978 8.0
53.7815 11.0
53.8652 10.0
53.9489 5.0
54.0326 4.0
54.1163 4.0
54.2 2.0
54.2837 5.0
54.3674 6.0
54.4511 14.0
54.5348 5.0
54.6185 7.0
54.7022 5.0
54.7859 7.0
54.8696 8.0
54.9533 2.0
55.037 3.0
55.1208 6.0
55.2045 12.0
55.2882 8.0
55.3719 27.0
55.4556 11.0
55.5393 12.0
55.623 7.0
55.7067 11.0
55.7904 7.0
55.8741 5.0
55.9578 4.0
56.0415 0.0
56.1252 5.0
56.2089 4.0
56.2926 4.0
56.3763 6.0
56.46 2.0
56.5437 4.0
56.6275 4.0
56.7112 4.0
56.7949 2.0
56.8786 6.0
56.9623 1.0
57.046 4.0
57.1297 5.0
57.2134 5.0
57.2971 11.0
57.3808 8.0
57.4645 11.0
57.5482 7.0
57.6319 10.0
57.7156 4.0
57.7993 5.0
57.883 5.0
57.9667 0.0
58.0504 7.0
58.1342 7.0
58.2179 7.0
58.3016 6.0
58.3853 6.0
58.469 3.0
58.5527 6.0
58.6364 5.0
58.7201 4.0
58.8038 2.0
58.8875 2.0
58.9712 6.0
59.0549 6.0
59.1386 4.0
59.2223 1.0
59.306 3.0
59.3897 7.0
59.4734 6.0
59.5571 8.0
59.6409 6.0
59.7246 0.0
59.8083 3.0
59.892 3.0
59.9757 3.0
60.0594 4.0
60.1431 3.0
60.2268 6.0
60.3105 8.0
60.3942 6.0
60.4779 3.0
60.5616 11.0
60.6453 74.0
60.729 55.0
60.8127 18.0
60.8964 11.0
60.9801 6.0
61.0638 10.0
61.1476 21.0
61.2313 7.0
61.315 16.0
61.3987 10.0
61.4824 12.0
61.5661 7.0
61.6498 10.0
61.7335 5.0
61.8172 10.0
61.9009 7.0
61.9846 8.0
62.0683 15.0
62.152 16.0
62.2357 5.0
62.3194 10.0
62.4031 9.0
62.4868 11.0
62.5705 13.0
62.6543 5.0
62.738 13.0
62.8217 9.0
62.9054 13.0
62.9891 18.0
63.0728 14.0
63.1565 21.0
63.2402 29.0
63.3239 35.0
63.4076 34.0
63.4913 49.0
63.575 79.0
63.6587 103.0
63.7424 137.0
63.8261 177.0
63.9098 298.0
63.9935 476.0
64.0772 636.0
64.161 830.0
64.2447 1012.0
64.3284 1062.0
64.4121 922.0
64.4958 718.0
64.5795 543.0
64.6632 368.0
64.7469 326.0
64.8306 347.0
64.9143 143.0
64.998 113.0
65.0817 65.0
65.1654 55.0
65.2491 60.0
65.3328 100.0
65.4165 48.0
65.5002 30.0
65.5839 26.0
65.6677 35.0
65.7514 23.0
65.8351 22.0
65.9188 19.0
66.0025 23.0
66.0862 11.0
66.1699 30.0
66.2536 23.0
66.3373 29.0
66.421 27.0
66.5047 32.0
66.5884 28.0
66.6721 41.0
66.7558 38.0
66.8395 34.0
66.9232 42.0
67.0069 44.0
67.0906 47.0
67.1744 64.0
67.2581 46.0
67.3418 84.0
67.4255 86.0
67.5092 129.0
67.5929 191.0
67.6766 416.0
67.7603 392.0
67.844 624.0
67.9277 2546.0
68.0114 39165.0
68.0951 2462.0
68.1788 16256.0
68.2625 2590.0
68.3462 587.0
68.4299 292.0
68.5136 175.0
68.5973 139.0
68.6811 100.0
68.7648 85.0
68.8485 83.0
68.9322 69.0
69.0159 72.0
69.0996 55.0
69.1833 49.0
69.267 39.0
69.3507 38.0
69.4344 35.0
69.5181 28.0
69.6018 30.0
69.6855 20.0
69.7692 14.0
69.8529 21.0
69.9366 12.0
70.0203 14.0
70.104 15.0
70.1878 13.0
70.2715 14.0
70.3552 12.0
70.4389 16.0
70.5226 16.0
70.6063 15.0
70.69 15.0
70.7737 8.0
70.8574 10.0
70.9411 10.0
71.0248 9.0
71.1085 9.0
71.1922 8.0
71.2759 15.0
71.3596 8.0
71.4433 7.0
71.527 3.0
71.6107 3.0
71.6945 8.0
71.7782 8.0
71.8619 5.0
71.9456 3.0
72.0293 6.0
72.113 5.0
72.1967 7.0
72.2804 3.0
72.3641 8.0
72.4478 6.0
72.5315 1.0
72.6152 10.0
72.6989 4.0
72.7826 3.0
72.8663 6.0
72.95 0.0
73.0337 3.0
73.1174 8.0
73.2012 3.0
73.2849 2.0
73.3686 1.0
73.4523 7.0
73.536 4.0
73.6197 4.0
73.7034 9.0
73.7871 3.0
73.8708 3.0
73.9545 3.0
74.0382 6.0
74.1219 3.0
74.2056 4.0
74.2893 4.0
74.373 0.0
74.4567 3.0
74.5404 3.0
74.6241 3.0
74.7079 4.0
74.7916 2.0
74.8753 4.0
74.959 2.0
75.0427 3.0
75.1264 3.0
75.2101 3.0
75.2938 5.0
75.3775 0.0
75.4612 1.0
75.5449 1.0
75.6286 6.0
75.7123 0.0
75.796 2.0
75.8797 4.0
75.9634 4.0
76.0471 5.0
76.1308 4.0
76.2146 3.0
76.2983 6.0
76.382 1.0
76.4657 3.0
76.5494 1.0
76.6331 2.0
76.7168 8.0
76.8005 6.0
76.8842 2.0
76.9679 3.0
77.0516 7.0
77.1353 0.0
77.219 2.0
77.3027 2.0
77.3864 2.0
77.4701 2.0
77.5538 2.0
77.6375 6.0
77.7213 5.0
77.805 0.0
77.8887 1.0
77.9724 2.0
78.0561 2.0
78.1398 3.0
78.2235 0.0
78.3072 7.0
78.3909 1.0
78.4746 0.0
78.5583 1.0
78.642 1.0
78.7257 3.0
78.8094 3.0
78.8931 4.0
78.9768 5.0
79.0605 2.0
79.1442 2.0
79.228 3.0
79.3117 2.0
79.3954 3.0
79.4791 1.0
79.5628 2.0
79.6465 3.0
79.7302 1.0
79.8139 1.0
79.8976 1.0
79.9813 3.0
80.065 1.0
80.1487 4.0
80.2324 4.0
80.3161 0.0
80.3998 2.0
80.4835 2.0
80.5672 1.0
80.6509 4.0
80.7347 2.0
80.8184 3.0
80.9021 1.0
80.9858 6.0
81.0695 4.0
81.1532 3.0
81.2369 1.0
81.3206 8.0
81.4043 4.0
81.488 1.0
81.5717 2.0
81.6554 2.0
81.7391 1.0
81.8228 3.0
81.9065 3.0
81.9902 0.0
82.0739 5.0
82.1576 1.0
82.2414 1.0
82.3251 1.0
82.4088 6.0
82.4925 3.0
82.5762 3.0
82.6599 1.0
82.7436 3.0
82.8273 4.0
82.911 0.0
82.9947 1.0
83.0784 6.0
83.1621 4.0
83.2458 2.0
83.3295 0.0
83.4132 5.0
83.4969 4.0
83.5806 0.0
83.6643 3.0
83.7481 3.0
83.8318 3.0
83.9155 0.0
83.9992 0.0
84.0829 4.0
84.1666 1.0
84.2503 2.0
84.334 4.0
84.4177 1.0
84.5014 5.0
84.5851 0.0
84.6688 3.0
84.7525 3.0
84.8362 1.0
84.9199 1.0
85.0036 2.0
85.0873 3.0
85.171 3.0
85.2548 1.0
85.3385 1.0
85.4222 1.0
85.5059 1.0
85.5896 5.0
85.6733 0.0
85.757 0.0
85.8407 4.0
85.9244 0.0
86.0081 2.0
86.0918 3.0
86.1755 1.0
86.2592 5.0
86.3429 2.0
86.4266 7.0
86.5103 2.0
86.594 5.0
86.6777 5.0
86.7615 2.0
86.8452 4.0
86.9289 4.0
87.0126 1.0
87.0963 7.0
87.18 1.0
87.2637 3.0
87.3474 2.0
87.4311 3.0
87.5148 3.0
87.5985 4.0
87.6822 0.0
87.7659 3.0
87.8496 3.0
87.9333 2.0
88.017 0.0
88.1007 0.0
88.1844 6.0
88.2682 0.0
88.3519 4.0
88.4356 3.0
88.5193 2.0
88.603 2.0
88.6867 2.0
88.7704 9.0
88.8541 3.0
88.9378 4.0
89.0215 0.0
89.1052 4.0
89.1889 4.0
89.2726 4.0
89.3563 4.0
89.44 4.0
89.5237 3.0
89.6074 0.0
89.6911 1.0
89.7749 5.0
89.8586 3.0
89.9423 1.0
90.026 0.0
90.1097 2.0
90.1934 2.0
90.2771 1.0
90.3608 0.0
90.4445 2.0
90.5282 2.0
90.6119 1.0
90.6956 0.0
90.7793 2.0
90.863 7.0
90.9467 2.0
91.0304 2.0
91.1141 1.0
91.1978 3.0
91.2816 6.0
91.3653 2.0
91.449 1.0
91.5327 2.0
91.6164 0.0
91.7001 1.0
91.7838 1.0
91.8675 3.0
91.9512 6.0
92.0349 2.0
92.1186 2.0
92.2023 2.0
92.286 1.0
92.3697 2.0
92.4534 2.0
92.5371 5.0
92.6208 2.0
92.7045 2.0
92.7883 2.0
92.872 6.0
92.9557 2.0
93.0394 5.0
93.1231 3.0
93.2068 1.0
93.2905 1.0
93.3742 2.0
93.4579 2.0
93.5416 2.0
93.6253 3.0
93.709 0.0
93.7927 1.0
93.8764 2.0
93.9601 3.0
94.0438 2.0
94.1275 0.0
94.2112 4.0
94.295 4.0
94.3787 6.0
94.4624 3.0
94.5461 0.0
94.6298 1.0
94.7135 1.0
94.7972 3.0
94.8809 2.0
94.9646 0.0
95.0483 0.0
95.132 1.0
95.2157 0.0
95.2994 0.0
95.3831 3.0
95.4668 0.0
95.5505 2.0
95.6342 6.0
95.7179 3.0
95.8017 7.0
95.8854 3.0
95.9691 5.0
96.0528 2.0
96.1365 4.0
96.2202 2.0
96.3039 0.0
96.3876 1.0
96.4713 3.0
96.555 0.0
96.6387 2.0
96.7224 4.0
96.8061 1.0
96.8898 2.0
96.9735 4.0
97.0572 5.0
97.1409 2.0
97.2246 1.0
97.3084 2.0
97.3921 3.0
97.4758 5.0
97.5595 0.0
97.6432 4.0
97.7269 4.0
97.8106 3.0
97.8943 0.0
97.978 5.0
98.0617 5.0
98.1454 3.0
98.2291 1.0
98.3128 3.0
98.3965 2.0
98.4802 1.0
98.5639 1.0
98.6476 3.0
98.7313 2.0
98.8151 5.0
98.8988 1.0
98.9825 1.0
99.0662 1.0
99.1499 1.0
99.2336 4.0
99.3173 4.0
99.401 4.0
99.4847 3.0
99.5684 0.0
99.6521 5.0
99.7358 2.0
99.8195 0.0
99.9032 6.0
99.9869 0.0
100.071 3.0
100.154 3.0
100.238 2.0
100.322 0.0
100.405 2.0
100.489 1.0
100.573 1.0
100.657 2.0
100.74 3.0
100.824 4.0
100.908 1.0
100.991 0.0
101.075 5.0
101.159 2.0
101.243 1.0
101.326 6.0
101.41 1.0
101.494 2.0
101.577 5.0
101.661 1.0
101.745 1.0
101.828 5.0
101.912 3.0
101.996 1.0
102.08 4.0
102.163 2.0
102.247 1.0
102.331 2.0
102.414 4.0
102.498 2.0
102.582 3.0
102.666 3.0
102.749 2.0
102.833 3.0
102.917 0.0
103 3.0
103.084 0.0
103.168 2.0
103.251 5.0
103.335 2.0
103.419 4.0
103.503 3.0
103.586 1.0
103.67 0.0
103.754 1.0
103.837 0.0
103.921 5.0
104.005 0.0
104.089 1.0
104.172 4.0
104.256 0.0
104.34 1.0
104.423 2.0
104.507 1.0
104.591 3.0
104.674 3.0
104.758 4.0
104.842 1.0
104.926 2.0
105.009 0.0
105.093 1.0
105.177 3.0
105.26 3.0
105.344 3.0
105.428 0.0
105.511 1.0
105.595 2.0
105.679 2.0
105.763 1.0
105.846 4.0
105.93 2.0
106.014 1.0
106.097 3.0
106.181 3.0
106.265 4.0
106.349 7.0
106.432 2.0
106.516 3.0
106.6 0.0
106.683 1.0
106.767 1.0
106.851 3.0
106.934 2.0
107.018 2.0
107.102 1.0
107.186 2.0
107.269 2.0
107.353 4.0
107.437 3.0
107.52 3.0
107.604 2.0
107.688 3.0
107.772 5.0
107.855 3.0
107.939 4.0
108.023 2.0
108.106 3.0
108.19 2.0
108.274 0.0
108.357 1.0
108.441 4.0
108.525 2.0
108.609 1.0
108.692 3.0
108.776 0.0
108.86 6.0
108.943 4.0
109.027 3.0
109.111 0.0
109.195 0.0
109.278 2.0
109.362 1.0
109.446 2.0
109.529 6.0
109.613 0.0
109.697 6.0
109.78 5.0
109.864 0.0
109.948 3.0
110.032 0.0
110.115 0.0
110.199 1.0
110.283 2.0
110.366 3.0
110.45 1.0
110.534 0.0
110.618 0.0
110.701 3.0
110.785 2.0
110.869 3.0
110.952 2.0
111.036 4.0
111.12 2.0
111.203 1.0
111.287 5.0
111.371 1.0
111.455 4.0
111.538 1.0
111.622 1.0
111.706 2.0
111.789 1.0
111.873 2.0
111.957 2.0
112.041 2.0
112.124 0.0
112.208 1.0
112.292 2.0
112.375 2.0
112.459 5.0
112.543 1.0
112.626 0.0
112.71 0.0
112.794 3.0
112.878 3.0
112.961 2.0
113.045 1.0
113.129 7.0
113.212 4.0
113.296 0.0
113.38 2.0
113.464 3.0
113.547 0.0
113.631 0.0
113.715 5.0
113.798 3.0
113.882 1.0
113.966 4.0
114.049 3.0
114.133 0.0
114.217 1.0
114.301 2.0
114.384 0.0
114.468 4.0
114.552 1.0
114.635 3.0
114.719 2.0
114.803 0.0
114.887 6.0
114.97 1.0
115.054 1.0
115.138 1.0
115.221 1.0
115.305 1.0
115.389 2.0
115.472 5.0
115.556 3.0
115.64 2.0
115.724 5.0
115.807 1.0
115.891 2.0
115.975 7.0
116.058 1.0
116.142 1.0
116.226 5.0
116.31 4.0
116.393 1.0
116.477 3.0
116.561 1.0
116.644 2.0
116.728 2.0
116.812 4.0
116.895 1.0
116.979 4.0
117.063 3.0
117.147 0.0
117.23 0.0
117.314 1.0
117.398 2.0
117.481 2.0
117.565 3.0
117.649 2.0
117.733 4.0
117.816 1.0
117.9 2.0
117.984 2.0
118.067 5.0
118.151 0.0
118.235 2.0
118.318 3.0
118.402 2.0
118.486 7.0
118.57 1.0
118.653 0.0
118.737 0.0
118.821 3.0
118.904 2.0
118.988 4.0
119.072 2.0
119.156 6.0
119.239 4.0
119.323 0.0
119.407 0.0
119.49 4.0
119.574 3.0
119.658 2.0
119.741 3.0
119.825 8.0
119.909 2.0
119.993 1.0
120.076 6.0
120.16 3.0
120.244 4.0
120.327 2.0
120.411 4.0
120.495 0.0
120.578 0.0
120.662 1.0
120.746 5.0
120.83 3.0
120.913 1.0
120.997 4.0
121.081 1.0
121.164 3.0
121.248 4.0
121.332 2.0
121.416 6.0
121.499 4.0
121.583 1.0
121.667 4.0
121.75 3.0
121.834 5.0
121.918 1.0
122.001 1.0
122.085 1.0
122.169 2.0
122.253 2.0
122.336 3.0
122.42 1.0
122.504 4.0
122.587 2.0
122.671 5.0
122.755 2.0
122.839 2.0
122.922 0.0
123.006 3.0
123.09 1.0
123.173 5.0
123.257 3.0
123.341 1.0
123.424 9.0
123.508 0.0
123.592 0.0
123.676 1.0
123.759 4.0
123.843 3.0
123.927 5.0
124.01 1.0
124.094 0.0
124.178 2.0
124.262 4.0
124.345 4.0
124.429 1.0
124.513 1.0
124.596 4.0
124.68 2.0
124.764 4.0
124.847 6.0
124.931 0.0
125.015 0.0
125.099 2.0
125.182 0.0
125.266 3.0
125.35 3.0
125.433 1.0
125.517 0.0
125.601 3.0
125.685 6.0
125.768 2.0
125.852 2.0
125.936 3.0
126.019 3.0
126.103 2.0
126.187 4.0
126.27 3.0
126.354 1.0
126.438 3.0
126.522 1.0
126.605 3.0
126.689 3.0
126.773 0.0
126.856 1.0
126.94 2.0
127.024 0.0
127.108 1.0
127.191 9.0
127.275 4.0
127.359 0.0
127.442 1.0
127.526 5.0
127.61 3.0
127.693 4.0
127.777 0.0
127.861 1.0
127.945 1.0
128.028 2.0
128.112 4.0
128.196 4.0
128.279 3.0
128.363 3.0
128.447 4.0
128.531 1.0
128.614 3.0
128.698 2.0
128.782 3.0
128.865 7.0
128.949 5.0
129.033 0.0
129.116 0.0
129.2 4.0
129.284 2.0
129.368 4.0
129.451 4.0
129.535 3.0
129.619 4.0
129.702 5.0
129.786 2.0
129.87 7.0
129.954 0.0
129.998 1.0