File: XRD_data/W6725/XRD_2ThetaOmega/W6725_absolute_2th-om_58-72deg-20min_5.xy
58.0028 307.0
58.0127 276.0
58.0225 298.0
58.0324 320.0
58.0422 282.0
58.0521 302.0
58.0619 298.0
58.0718 289.0
58.0816 301.0
58.0915 311.0
58.1013 288.0
58.1112 279.0
58.121 303.0
58.1309 275.0
58.1407 291.0
58.1505 312.0
58.1604 316.0
58.1702 267.0
58.1801 300.0
58.1899 305.0
58.1998 299.0
58.2096 297.0
58.2195 289.0
58.2293 294.0
58.2392 291.0
58.249 285.0
58.2589 285.0
58.2687 319.0
58.2786 276.0
58.2884 311.0
58.2983 290.0
58.3081 282.0
58.318 299.0
58.3278 286.0
58.3377 277.0
58.3475 300.0
58.3573 267.0
58.3672 309.0
58.377 265.0
58.3869 289.0
58.3967 290.0
58.4066 279.0
58.4164 291.0
58.4263 283.0
58.4361 276.0
58.446 297.0
58.4558 313.0
58.4657 246.0
58.4755 303.0
58.4854 288.0
58.4952 305.0
58.5051 296.0
58.5149 287.0
58.5248 288.0
58.5346 304.0
58.5445 268.0
58.5543 307.0
58.5642 302.0
58.574 270.0
58.5838 278.0
58.5937 299.0
58.6035 287.0
58.6134 320.0
58.6232 303.0
58.6331 279.0
58.6429 284.0
58.6528 295.0
58.6626 268.0
58.6725 286.0
58.6823 306.0
58.6922 289.0
58.702 271.0
58.7119 272.0
58.7217 268.0
58.7316 259.0
58.7414 316.0
58.7513 267.0
58.7611 301.0
58.771 266.0
58.7808 295.0
58.7906 278.0
58.8005 292.0
58.8103 273.0
58.8202 275.0
58.83 288.0
58.8399 280.0
58.8497 288.0
58.8596 265.0
58.8694 287.0
58.8793 285.0
58.8891 302.0
58.899 286.0
58.9088 295.0
58.9187 237.0
58.9285 268.0
58.9384 292.0
58.9482 268.0
58.9581 277.0
58.9679 297.0
58.9778 332.0
58.9876 294.0
58.9974 301.0
59.0073 290.0
59.0171 311.0
59.027 259.0
59.0368 274.0
59.0467 264.0
59.0565 282.0
59.0664 267.0
59.0762 294.0
59.0861 304.0
59.0959 283.0
59.1058 271.0
59.1156 265.0
59.1255 288.0
59.1353 270.0
59.1452 269.0
59.155 277.0
59.1649 270.0
59.1747 294.0
59.1846 312.0
59.1944 311.0
59.2043 276.0
59.2141 286.0
59.2239 292.0
59.2338 280.0
59.2436 278.0
59.2535 290.0
59.2633 303.0
59.2732 328.0
59.283 244.0
59.2929 293.0
59.3027 293.0
59.3126 289.0
59.3224 290.0
59.3323 262.0
59.3421 269.0
59.352 290.0
59.3618 285.0
59.3717 269.0
59.3815 291.0
59.3914 274.0
59.4012 263.0
59.4111 303.0
59.4209 309.0
59.4307 268.0
59.4406 290.0
59.4504 301.0
59.4603 287.0
59.4701 277.0
59.48 281.0
59.4898 276.0
59.4997 278.0
59.5095 299.0
59.5194 274.0
59.5292 280.0
59.5391 298.0
59.5489 344.0
59.5588 295.0
59.5686 294.0
59.5785 290.0
59.5883 297.0
59.5982 300.0
59.608 240.0
59.6179 270.0
59.6277 278.0
59.6376 288.0
59.6474 264.0
59.6572 274.0
59.6671 299.0
59.6769 264.0
59.6868 275.0
59.6966 314.0
59.7065 306.0
59.7163 264.0
59.7262 313.0
59.736 284.0
59.7459 272.0
59.7557 322.0
59.7656 279.0
59.7754 287.0
59.7853 324.0
59.7951 274.0
59.805 301.0
59.8148 303.0
59.8247 314.0
59.8345 287.0
59.8444 304.0
59.8542 302.0
59.864 294.0
59.8739 275.0
59.8837 301.0
59.8936 293.0
59.9034 290.0
59.9133 311.0
59.9231 261.0
59.933 275.0
59.9428 292.0
59.9527 261.0
59.9625 284.0
59.9724 260.0
59.9822 296.0
59.9921 230.0
60.0019 280.0
60.0118 269.0
60.0216 279.0
60.0315 327.0
60.0413 279.0
60.0512 287.0
60.061 282.0
60.0709 283.0
60.0807 288.0
60.0905 307.0
60.1004 299.0
60.1102 278.0
60.1201 322.0
60.1299 267.0
60.1398 307.0
60.1496 297.0
60.1595 289.0
60.1693 299.0
60.1792 278.0
60.189 265.0
60.1989 329.0
60.2087 327.0
60.2186 305.0
60.2284 317.0
60.2383 270.0
60.2481 325.0
60.258 288.0
60.2678 326.0
60.2777 311.0
60.2875 315.0
60.2973 323.0
60.3072 342.0
60.317 321.0
60.3269 314.0
60.3367 310.0
60.3466 280.0
60.3564 335.0
60.3663 328.0
60.3761 323.0
60.386 313.0
60.3958 310.0
60.4057 324.0
60.4155 300.0
60.4254 331.0
60.4352 327.0
60.4451 290.0
60.4549 314.0
60.4648 338.0
60.4746 325.0
60.4845 305.0
60.4943 314.0
60.5041 322.0
60.514 300.0
60.5238 347.0
60.5337 322.0
60.5435 295.0
60.5534 333.0
60.5632 295.0
60.5731 317.0
60.5829 301.0
60.5928 326.0
60.6026 339.0
60.6125 329.0
60.6223 362.0
60.6322 333.0
60.642 340.0
60.6519 357.0
60.6617 359.0
60.6716 344.0
60.6814 355.0
60.6913 397.0
60.7011 365.0
60.711 433.0
60.7208 420.0
60.7306 475.0
60.7405 535.0
60.7503 616.0
60.7602 708.0
60.77 898.0
60.7799 1089.0
60.7897 1426.0
60.7996 1873.0
60.8094 2298.0
60.8193 2477.0
60.8291 2577.0
60.839 2509.0
60.8488 2177.0
60.8587 1966.0
60.8685 1594.0
60.8784 1439.0
60.8882 1326.0
60.8981 1318.0
60.9079 1192.0
60.9178 1183.0
60.9276 1039.0
60.9374 859.0
60.9473 808.0
60.9571 679.0
60.967 586.0
60.9768 578.0
60.9867 585.0
60.9965 474.0
61.0064 443.0
61.0162 441.0
61.0261 425.0
61.0359 422.0
61.0458 439.0
61.0556 452.0
61.0655 398.0
61.0753 418.0
61.0852 393.0
61.095 392.0
61.1049 420.0
61.1147 397.0
61.1246 398.0
61.1344 399.0
61.1443 382.0
61.1541 399.0
61.1639 385.0
61.1738 414.0
61.1836 392.0
61.1935 414.0
61.2033 410.0
61.2132 434.0
61.223 451.0
61.2329 439.0
61.2427 406.0
61.2526 401.0
61.2624 412.0
61.2723 424.0
61.2821 424.0
61.292 446.0
61.3018 424.0
61.3117 416.0
61.3215 475.0
61.3314 407.0
61.3412 424.0
61.3511 404.0
61.3609 410.0
61.3707 412.0
61.3806 460.0
61.3904 411.0
61.4003 387.0
61.4101 447.0
61.42 438.0
61.4298 427.0
61.4397 485.0
61.4495 456.0
61.4594 459.0
61.4692 408.0
61.4791 460.0
61.4889 440.0
61.4988 416.0
61.5086 439.0
61.5185 437.0
61.5283 431.0
61.5382 460.0
61.548 434.0
61.5579 417.0
61.5677 423.0
61.5776 389.0
61.5874 397.0
61.5972 403.0
61.6071 391.0
61.6169 384.0
61.6268 396.0
61.6366 415.0
61.6465 422.0
61.6563 381.0
61.6662 398.0
61.676 416.0
61.6859 405.0
61.6957 380.0
61.7056 387.0
61.7154 405.0
61.7253 382.0
61.7351 381.0
61.745 361.0
61.7548 376.0
61.7647 415.0
61.7745 370.0
61.7844 382.0
61.7942 374.0
61.804 358.0
61.8139 381.0
61.8237 357.0
61.8336 393.0
61.8434 338.0
61.8533 436.0
61.8631 399.0
61.873 361.0
61.8828 378.0
61.8927 379.0
61.9025 375.0
61.9124 358.0
61.9222 370.0
61.9321 375.0
61.9419 417.0
61.9518 393.0
61.9616 339.0
61.9715 347.0
61.9813 364.0
61.9912 376.0
62.001 371.0
62.0108 371.0
62.0207 392.0
62.0305 360.0
62.0404 367.0
62.0502 388.0
62.0601 335.0
62.0699 373.0
62.0798 381.0
62.0896 367.0
62.0995 348.0
62.1093 350.0
62.1192 392.0
62.129 406.0
62.1389 387.0
62.1487 392.0
62.1586 358.0
62.1684 378.0
62.1783 370.0
62.1881 380.0
62.198 375.0
62.2078 377.0
62.2177 404.0
62.2275 376.0
62.2373 371.0
62.2472 381.0
62.257 380.0
62.2669 389.0
62.2767 372.0
62.2866 384.0
62.2964 355.0
62.3063 386.0
62.3161 363.0
62.326 347.0
62.3358 346.0
62.3457 363.0
62.3555 362.0
62.3654 319.0
62.3752 383.0
62.3851 352.0
62.3949 326.0
62.4048 410.0
62.4146 395.0
62.4245 337.0
62.4343 357.0
62.4441 378.0
62.454 358.0
62.4638 377.0
62.4737 387.0
62.4835 402.0
62.4934 358.0
62.5032 363.0
62.5131 386.0
62.5229 373.0
62.5328 385.0
62.5426 391.0
62.5525 390.0
62.5623 391.0
62.5722 382.0
62.582 389.0
62.5919 384.0
62.6017 381.0
62.6116 420.0
62.6214 401.0
62.6313 390.0
62.6411 397.0
62.651 369.0
62.6608 393.0
62.6706 423.0
62.6805 367.0
62.6903 413.0
62.7002 424.0
62.71 419.0
62.7199 396.0
62.7297 419.0
62.7396 414.0
62.7494 381.0
62.7593 421.0
62.7691 389.0
62.779 421.0
62.7888 416.0
62.7987 402.0
62.8085 395.0
62.8184 422.0
62.8282 392.0
62.8381 448.0
62.8479 400.0
62.8578 389.0
62.8676 429.0
62.8774 433.0
62.8873 423.0
62.8971 424.0
62.907 413.0
62.9168 442.0
62.9267 459.0
62.9365 444.0
62.9464 388.0
62.9562 442.0
62.9661 463.0
62.9759 436.0
62.9858 454.0
62.9956 480.0
63.0055 459.0
63.0153 448.0
63.0252 458.0
63.035 438.0
63.0449 446.0
63.0547 488.0
63.0646 481.0
63.0744 514.0
63.0843 456.0
63.0941 457.0
63.1039 484.0
63.1138 477.0
63.1236 519.0
63.1335 501.0
63.1433 475.0
63.1532 524.0
63.163 525.0
63.1729 522.0
63.1827 501.0
63.1926 494.0
63.2024 524.0
63.2123 583.0
63.2221 567.0
63.232 549.0
63.2418 567.0
63.2517 532.0
63.2615 571.0
63.2714 567.0
63.2812 588.0
63.2911 562.0
63.3009 576.0
63.3107 547.0
63.3206 598.0
63.3304 599.0
63.3403 602.0
63.3501 628.0
63.36 582.0
63.3698 671.0
63.3797 634.0
63.3895 650.0
63.3994 657.0
63.4092 673.0
63.4191 657.0
63.4289 734.0
63.4388 682.0
63.4486 694.0
63.4585 753.0
63.4683 741.0
63.4782 767.0
63.488 733.0
63.4979 868.0
63.5077 723.0
63.5175 829.0
63.5274 796.0
63.5372 809.0
63.5471 845.0
63.5569 909.0
63.5668 869.0
63.5766 893.0
63.5865 997.0
63.5963 953.0
63.6062 1002.0
63.616 970.0
63.6259 1011.0
63.6357 1033.0
63.6456 1069.0
63.6554 1052.0
63.6653 1090.0
63.6751 1184.0
63.685 1155.0
63.6948 1261.0
63.7047 1217.0
63.7145 1285.0
63.7244 1335.0
63.7342 1385.0
63.744 1376.0
63.7539 1409.0
63.7637 1428.0
63.7736 1525.0
63.7834 1654.0
63.7933 1647.0
63.8031 1670.0
63.813 1805.0
63.8228 1790.0
63.8327 1861.0
63.8425 2016.0
63.8524 2027.0
63.8622 2155.0
63.8721 2159.0
63.8819 2328.0
63.8918 2471.0
63.9016 2503.0
63.9115 2495.0
63.9213 2654.0
63.9312 2696.0
63.941 2782.0
63.9508 3034.0
63.9607 3153.0
63.9705 3328.0
63.9804 3480.0
63.9902 3520.0
64.0001 3876.0
64.0099 3886.0
64.0198 4140.0
64.0296 4435.0
64.0395 4615.0
64.0493 4757.0
64.0592 4915.0
64.069 5260.0
64.0789 5473.0
64.0887 5633.0
64.0986 5974.0
64.1084 6125.0
64.1183 6621.0
64.1281 6877.0
64.138 7041.0
64.1478 7552.0
64.1577 7914.0
64.1675 8149.0
64.1773 8376.0
64.1872 8858.0
64.197 9245.0
64.2069 9759.0
64.2167 10011.0
64.2266 10478.0
64.2364 10909.0
64.2463 11256.0
64.2561 11743.0
64.266 12084.0
64.2758 12301.0
64.2857 12739.0
64.2955 13409.0
64.3054 13759.0
64.3152 14002.0
64.3251 14508.0
64.3349 14974.0
64.3448 15148.0
64.3546 15496.0
64.3645 15582.0
64.3743 16263.0
64.3841 16573.0
64.394 16615.0
64.4038 16962.0
64.4137 17112.0
64.4235 17007.0
64.4334 17484.0
64.4432 17407.0
64.4531 17436.0
64.4629 17669.0
64.4728 17540.0
64.4826 17482.0
64.4925 17418.0
64.5023 17108.0
64.5122 16964.0
64.522 16552.0
64.5319 16138.0
64.5417 15941.0
64.5516 15696.0
64.5614 15444.0
64.5713 14937.0
64.5811 14518.0
64.591 14275.0
64.6008 13957.0
64.6106 13529.0
64.6205 13030.0
64.6303 12590.0
64.6402 12447.0
64.65 12272.0
64.6599 11567.0
64.6697 11390.0
64.6796 11050.0
64.6894 10583.0
64.6993 10163.0
64.7091 9713.0
64.719 9293.0
64.7288 8912.0
64.7387 8611.0
64.7485 8179.0
64.7584 7889.0
64.7682 7624.0
64.7781 7344.0
64.7879 6978.0
64.7978 6692.0
64.8076 6560.0
64.8174 6248.0
64.8273 6025.0
64.8371 6018.0
64.847 5837.0
64.8568 5619.0
64.8667 5454.0
64.8765 5549.0
64.8864 5460.0
64.8962 5729.0
64.9061 6167.0
64.9159 6639.0
64.9258 7261.0
64.9356 7399.0
64.9455 7726.0
64.9553 7398.0
64.9652 6949.0
64.975 6365.0
64.9849 5666.0
64.9947 5137.0
65.0046 4511.0
65.0144 4033.0
65.0242 3622.0
65.0341 3328.0
65.0439 3181.0
65.0538 2995.0
65.0636 2832.0
65.0735 2599.0
65.0833 2493.0
65.0932 2488.0
65.103 2242.0
65.1129 2178.0
65.1227 2192.0
65.1326 2031.0
65.1424 2061.0
65.1523 1899.0
65.1621 1878.0
65.172 1813.0
65.1818 1764.0
65.1917 1729.0
65.2015 1607.0
65.2114 1633.0
65.2212 1598.0
65.2311 1603.0
65.2409 1435.0
65.2507 1453.0
65.2606 1511.0
65.2704 1474.0
65.2803 1334.0
65.2901 1394.0
65.3 1330.0
65.3098 1368.0
65.3197 1205.0
65.3295 1288.0
65.3394 1245.0
65.3492 1206.0
65.3591 1251.0
65.3689 1196.0
65.3788 1141.0
65.3886 1156.0
65.3985 1152.0
65.4083 1166.0
65.4182 1217.0
65.428 1255.0
65.4379 1300.0
65.4477 1305.0
65.4575 1505.0
65.4674 1680.0
65.4772 1654.0
65.4871 1677.0
65.4969 1707.0
65.5068 1639.0
65.5166 1555.0
65.5265 1456.0
65.5363 1361.0
65.5462 1161.0
65.556 1115.0
65.5659 1039.0
65.5757 1007.0
65.5856 941.0
65.5954 917.0
65.6053 846.0
65.6151 869.0
65.625 890.0
65.6348 891.0
65.6447 852.0
65.6545 815.0
65.6644 803.0
65.6742 778.0
65.684 827.0
65.6939 782.0
65.7037 752.0
65.7136 706.0
65.7234 771.0
65.7333 760.0
65.7431 742.0
65.753 734.0
65.7628 761.0
65.7727 718.0
65.7825 734.0
65.7924 695.0
65.8022 704.0
65.8121 746.0
65.8219 692.0
65.8318 698.0
65.8416 682.0
65.8515 671.0
65.8613 658.0
65.8712 696.0
65.881 630.0
65.8908 699.0
65.9007 674.0
65.9105 686.0
65.9204 649.0
65.9302 725.0
65.9401 657.0
65.9499 694.0
65.9598 645.0
65.9696 639.0
65.9795 687.0
65.9893 622.0
65.9992 657.0
66.009 636.0
66.0189 680.0
66.0287 717.0
66.0386 610.0
66.0484 669.0
66.0583 637.0
66.0681 614.0
66.078 699.0
66.0878 657.0
66.0977 701.0
66.1075 691.0
66.1173 711.0
66.1272 708.0
66.137 713.0
66.1469 709.0
66.1567 726.0
66.1666 686.0
66.1764 692.0
66.1863 638.0
66.1961 689.0
66.206 705.0
66.2158 643.0
66.2257 660.0
66.2355 687.0
66.2454 685.0
66.2552 613.0
66.2651 660.0
66.2749 645.0
66.2848 688.0
66.2946 666.0
66.3045 712.0
66.3143 610.0
66.3241 690.0
66.334 697.0
66.3438 706.0
66.3537 666.0
66.3635 669.0
66.3734 695.0
66.3832 755.0
66.3931 634.0
66.4029 729.0
66.4128 725.0
66.4226 763.0
66.4325 711.0
66.4423 707.0
66.4522 700.0
66.462 723.0
66.4719 740.0
66.4817 730.0
66.4916 728.0
66.5014 707.0
66.5113 727.0
66.5211 802.0
66.5309 702.0
66.5408 761.0
66.5506 747.0
66.5605 734.0
66.5703 768.0
66.5802 760.0
66.59 757.0
66.5999 799.0
66.6097 726.0
66.6196 778.0
66.6294 784.0
66.6393 736.0
66.6491 772.0
66.659 729.0
66.6688 812.0
66.6787 763.0
66.6885 795.0
66.6984 788.0
66.7082 831.0
66.7181 817.0
66.7279 823.0
66.7378 829.0
66.7476 830.0
66.7574 834.0
66.7673 829.0
66.7771 838.0
66.787 822.0
66.7968 806.0
66.8067 864.0
66.8165 862.0
66.8264 868.0
66.8362 853.0
66.8461 849.0
66.8559 878.0
66.8658 903.0
66.8756 904.0
66.8855 902.0
66.8953 925.0
66.9052 888.0
66.915 918.0
66.9249 936.0
66.9347 954.0
66.9446 907.0
66.9544 935.0
66.9642 970.0
66.9741 944.0
66.9839 939.0
66.9938 948.0
67.0036 963.0
67.0135 984.0
67.0233 967.0
67.0332 940.0
67.043 1007.0
67.0529 913.0
67.0627 1003.0
67.0726 994.0
67.0824 982.0
67.0923 1031.0
67.1021 1030.0
67.112 981.0
67.1218 1077.0
67.1317 1035.0
67.1415 1076.0
67.1514 1013.0
67.1612 1069.0
67.1711 1140.0
67.1809 1121.0
67.1907 1130.0
67.2006 1063.0
67.2104 1106.0
67.2203 1161.0
67.2301 1141.0
67.24 1155.0
67.2498 1191.0
67.2597 1305.0
67.2695 1297.0
67.2794 1251.0
67.2892 1259.0
67.2991 1315.0
67.3089 1294.0
67.3188 1300.0
67.3286 1342.0
67.3385 1347.0
67.3483 1361.0
67.3582 1390.0
67.368 1317.0
67.3779 1345.0
67.3877 1446.0
67.3975 1411.0
67.4074 1466.0
67.4172 1474.0
67.4271 1591.0
67.4369 1554.0
67.4468 1572.0
67.4566 1570.0
67.4665 1635.0
67.4763 1636.0
67.4862 1640.0
67.496 1663.0
67.5059 1750.0
67.5157 1720.0
67.5256 1770.0
67.5354 1839.0
67.5453 1890.0
67.5551 1825.0
67.565 1866.0
67.5748 1811.0
67.5847 1931.0
67.5945 1980.0
67.6044 1964.0
67.6142 2072.0
67.624 2226.0
67.6339 2189.0
67.6437 2247.0
67.6536 2291.0
67.6634 2440.0
67.6733 2635.0
67.6831 2691.0
67.693 2738.0
67.7028 2910.0
67.7127 3105.0
67.7225 3358.0
67.7324 3778.0
67.7422 3974.0
67.7521 4487.0
67.7619 4766.0
67.7718 5081.0
67.7816 5639.0
67.7915 6021.0
67.8013 6268.0
67.8112 6593.0
67.821 6727.0
67.8308 6695.0
67.8407 7027.0
67.8505 6938.0
67.8604 7000.0
67.8702 6996.0
67.8801 6760.0
67.8899 6718.0
67.8998 6844.0
67.9096 6902.0
67.9195 7155.0
67.9293 7338.0
67.9392 7629.0
67.949 8244.0
67.9589 8526.0
67.9687 9269.0
67.9786 10103.0
67.9884 11019.0
67.9983 12532.0
68.0081 14210.0
68.018 16107.0
68.0278 18781.0
68.0376 21996.0
68.0475 25793.0
68.0573 31714.0
68.0672 40226.0
68.077 52689.0
68.0869 72542.0
68.0967 110507.0
68.1066 191014.0
68.1164 348418.0
68.1263 524966.0
68.1361 633470.0
68.146 681265.0
68.1558 675786.0
68.1657 593319.0
68.1755 423254.0
68.1854 258203.0
68.1952 162070.0
68.2051 105902.0
68.2149 73714.0
68.2248 55652.0
68.2346 45507.0
68.2445 39745.0
68.2543 37905.0
68.2641 40586.0
68.274 46412.0
68.2838 60158.0
68.2937 87609.0
68.3035 141513.0
68.3134 219705.0
68.3232 290235.0
68.3331 333272.0
68.3429 344879.0
68.3528 327963.0
68.3626 269256.0
68.3725 188709.0
68.3823 120694.0
68.3922 77416.0
68.402 51965.0
68.4119 36922.0
68.4217 27729.0
68.4316 22037.0
68.4414 18171.0
68.4513 15647.0
68.4611 13532.0
68.4709 12100.0
68.4808 10833.0
68.4906 10145.0
68.5005 9205.0
68.5103 8476.0
68.5202 8061.0
68.53 7320.0
68.5399 6996.0
68.5497 6622.0
68.5596 6348.0
68.5694 6009.0
68.5793 5592.0
68.5891 5348.0
68.599 5122.0
68.6088 4842.0
68.6187 4582.0
68.6285 4388.0
68.6384 4254.0
68.6482 4124.0
68.6581 4015.0
68.6679 3875.0
68.6778 3705.0
68.6876 3601.0
68.6974 3431.0
68.7073 3478.0
68.7171 3254.0
68.727 3185.0
68.7368 3145.0
68.7467 3070.0
68.7565 2988.0
68.7664 2865.0
68.7762 2772.0
68.7861 2718.0
68.7959 2738.0
68.8058 2654.0
68.8156 2595.0
68.8255 2448.0
68.8353 2485.0
68.8452 2456.0
68.855 2238.0
68.8649 2353.0
68.8747 2186.0
68.8846 2284.0
68.8944 2196.0
68.9042 2167.0
68.9141 2112.0
68.9239 2062.0
68.9338 1989.0
68.9436 2098.0
68.9535 1986.0
68.9633 2031.0
68.9732 1948.0
68.983 1959.0
68.9929 1880.0
69.0027 1793.0
69.0126 1846.0
69.0224 1789.0
69.0323 1789.0
69.0421 1794.0
69.052 1721.0
69.0618 1723.0
69.0717 1762.0
69.0815 1656.0
69.0914 1651.0
69.1012 1624.0
69.1111 1568.0
69.1209 1569.0
69.1307 1618.0
69.1406 1551.0
69.1504 1558.0
69.1603 1492.0
69.1701 1577.0
69.18 1546.0
69.1898 1435.0
69.1997 1435.0
69.2095 1456.0
69.2194 1475.0
69.2292 1471.0
69.2391 1393.0
69.2489 1445.0
69.2588 1314.0
69.2686 1328.0
69.2785 1340.0
69.2883 1339.0
69.2982 1275.0
69.308 1301.0
69.3179 1343.0
69.3277 1255.0
69.3375 1283.0
69.3474 1266.0
69.3572 1244.0
69.3671 1283.0
69.3769 1246.0
69.3868 1122.0
69.3966 1184.0
69.4065 1132.0
69.4163 1110.0
69.4262 1134.0
69.436 1102.0
69.4459 1134.0
69.4557 1150.0
69.4656 1126.0
69.4754 1111.0
69.4853 1090.0
69.4951 1079.0
69.505 1049.0
69.5148 1022.0
69.5247 1076.0
69.5345 956.0
69.5443 1005.0
69.5542 1015.0
69.564 999.0
69.5739 959.0
69.5837 985.0
69.5936 1023.0
69.6034 952.0
69.6133 959.0
69.6231 966.0
69.633 963.0
69.6428 934.0
69.6527 943.0
69.6625 941.0
69.6724 947.0
69.6822 941.0
69.6921 886.0
69.7019 874.0
69.7118 866.0
69.7216 884.0
69.7315 810.0
69.7413 913.0
69.7512 817.0
69.761 818.0
69.7708 843.0
69.7807 867.0
69.7905 795.0
69.8004 824.0
69.8102 809.0
69.8201 811.0
69.8299 832.0
69.8398 805.0
69.8496 777.0
69.8595 820.0
69.8693 758.0
69.8792 774.0
69.889 802.0
69.8989 720.0
69.9087 781.0
69.9186 765.0
69.9284 720.0
69.9383 731.0
69.9481 770.0
69.958 728.0
69.9678 690.0
69.9776 720.0
69.9875 715.0
69.9973 683.0
70.0072 705.0
70.017 674.0
70.0269 653.0
70.0367 666.0
70.0466 700.0
70.0564 691.0
70.0663 616.0
70.0761 630.0
70.086 639.0
70.0958 589.0
70.1057 662.0
70.1155 653.0
70.1254 634.0
70.1352 639.0
70.1451 633.0
70.1549 618.0
70.1648 594.0
70.1746 595.0
70.1845 608.0
70.1943 612.0
70.2041 607.0
70.214 624.0
70.2238 586.0
70.2337 610.0
70.2435 595.0
70.2534 570.0
70.2632 535.0
70.2731 603.0
70.2829 567.0
70.2928 551.0
70.3026 585.0
70.3125 573.0
70.3223 609.0
70.3322 587.0
70.342 531.0
70.3519 561.0
70.3617 561.0
70.3716 549.0
70.3814 551.0
70.3913 494.0
70.4011 504.0
70.4109 549.0
70.4208 504.0
70.4306 513.0
70.4405 559.0
70.4503 518.0
70.4602 505.0
70.47 522.0
70.4799 521.0
70.4897 537.0
70.4996 461.0
70.5094 516.0
70.5193 465.0
70.5291 491.0
70.539 459.0
70.5488 484.0
70.5587 458.0
70.5685 477.0
70.5784 430.0
70.5882 503.0
70.5981 474.0
70.6079 506.0
70.6178 478.0
70.6276 451.0
70.6374 490.0
70.6473 463.0
70.6571 480.0
70.667 489.0
70.6768 458.0
70.6867 505.0
70.6965 475.0
70.7064 451.0
70.7162 458.0
70.7261 456.0
70.7359 418.0
70.7458 495.0
70.7556 478.0
70.7655 450.0
70.7753 438.0
70.7852 453.0
70.795 470.0
70.8049 414.0
70.8147 435.0
70.8246 452.0
70.8344 428.0
70.8442 435.0
70.8541 417.0
70.8639 432.0
70.8738 429.0
70.8836 426.0
70.8935 415.0
70.9033 454.0
70.9132 451.0
70.923 468.0
70.9329 405.0
70.9427 408.0
70.9526 425.0
70.9624 443.0
70.9723 458.0
70.9821 404.0
70.992 417.0
71.0018 416.0
71.0117 420.0
71.0215 407.0
71.0314 357.0
71.0412 405.0
71.051 394.0
71.0609 396.0
71.0707 415.0
71.0806 399.0
71.0904 437.0
71.1003 439.0
71.1101 411.0
71.12 376.0
71.1298 387.0
71.1397 415.0
71.1495 414.0
71.1594 422.0
71.1692 401.0
71.1791 389.0
71.1889 394.0
71.1988 399.0
71.2086 402.0
71.2185 377.0
71.2283 356.0
71.2382 417.0
71.248 388.0
71.2579 411.0
71.2677 400.0
71.2775 368.0
71.2874 354.0
71.2972 389.0
71.3071 362.0
71.3169 397.0
71.3268 388.0
71.3366 398.0
71.3465 418.0
71.3563 376.0
71.3662 386.0
71.376 355.0
71.3859 383.0
71.3957 394.0
71.4056 399.0
71.4154 366.0
71.4253 381.0
71.4351 351.0
71.445 350.0
71.4548 366.0
71.4647 354.0
71.4745 351.0
71.4843 387.0
71.4942 354.0
71.504 337.0
71.5139 377.0
71.5237 396.0
71.5336 354.0
71.5434 364.0
71.5533 318.0
71.5631 378.0
71.573 353.0
71.5828 380.0
71.5927 350.0
71.6025 372.0
71.6124 355.0
71.6222 359.0
71.6321 337.0
71.6419 359.0
71.6518 369.0
71.6616 370.0
71.6715 369.0
71.6813 326.0
71.6912 392.0
71.701 338.0
71.7108 354.0
71.7207 366.0
71.7305 374.0
71.7404 367.0
71.7502 346.0
71.7601 380.0
71.7699 360.0
71.7798 321.0
71.7896 378.0
71.7995 369.0
71.8093 327.0
71.8192 340.0
71.829 350.0
71.8389 383.0
71.8487 345.0
71.8586 329.0
71.8684 332.0
71.8783 318.0
71.8881 360.0
71.898 327.0
71.9078 351.0
71.9176 375.0
71.9275 321.0
71.9373 380.0
71.9472 327.0
71.957 330.0
71.9669 349.0
71.9767 351.0
71.9866 337.0
71.9964 362.0
71.9989 340.0