File: XRD_data/W6911m/XRD_2ThetaOmega/w6911m_scan_2th-om_m_Cr2O3_55-75deg_PIXscan_4min.xy
55.0019 126.0
55.0166 142.0
55.0314 113.0
55.0462 117.0
55.0609 126.0
55.0757 109.0
55.0905 111.0
55.1053 115.0
55.12 132.0
55.1348 91.0
55.1496 125.0
55.1643 106.0
55.1791 130.0
55.1939 118.0
55.2087 117.0
55.2234 102.0
55.2382 124.0
55.253 117.0
55.2677 119.0
55.2825 120.0
55.2973 132.0
55.3121 135.0
55.3268 114.0
55.3416 136.0
55.3564 117.0
55.3712 136.0
55.3859 130.0
55.4007 109.0
55.4155 125.0
55.4302 117.0
55.445 114.0
55.4598 141.0
55.4746 130.0
55.4893 134.0
55.5041 115.0
55.5189 139.0
55.5336 119.0
55.5484 142.0
55.5632 142.0
55.578 119.0
55.5927 123.0
55.6075 128.0
55.6223 111.0
55.637 127.0
55.6518 120.0
55.6666 120.0
55.6814 118.0
55.6961 102.0
55.7109 109.0
55.7257 127.0
55.7404 145.0
55.7552 127.0
55.77 136.0
55.7848 112.0
55.7995 107.0
55.8143 125.0
55.8291 116.0
55.8438 105.0
55.8586 129.0
55.8734 125.0
55.8882 131.0
55.9029 104.0
55.9177 128.0
55.9325 135.0
55.9472 131.0
55.962 122.0
55.9768 118.0
55.9916 110.0
56.0063 137.0
56.0211 120.0
56.0359 110.0
56.0506 131.0
56.0654 146.0
56.0802 122.0
56.095 123.0
56.1097 120.0
56.1245 131.0
56.1393 99.0
56.154 120.0
56.1688 118.0
56.1836 126.0
56.1984 135.0
56.2131 151.0
56.2279 113.0
56.2427 128.0
56.2574 120.0
56.2722 140.0
56.287 98.0
56.3018 128.0
56.3165 129.0
56.3313 115.0
56.3461 110.0
56.3608 117.0
56.3756 111.0
56.3904 127.0
56.4052 123.0
56.4199 117.0
56.4347 103.0
56.4495 135.0
56.4642 106.0
56.479 103.0
56.4938 106.0
56.5086 124.0
56.5233 140.0
56.5381 125.0
56.5529 106.0
56.5676 121.0
56.5824 128.0
56.5972 142.0
56.612 123.0
56.6267 123.0
56.6415 123.0
56.6563 124.0
56.671 110.0
56.6858 139.0
56.7006 125.0
56.7154 127.0
56.7301 119.0
56.7449 143.0
56.7597 134.0
56.7744 130.0
56.7892 126.0
56.804 114.0
56.8188 126.0
56.8335 119.0
56.8483 125.0
56.8631 145.0
56.8778 140.0
56.8926 119.0
56.9074 123.0
56.9222 124.0
56.9369 126.0
56.9517 131.0
56.9665 128.0
56.9812 136.0
56.996 132.0
57.0108 116.0
57.0256 111.0
57.0403 119.0
57.0551 120.0
57.0699 121.0
57.0846 118.0
57.0994 109.0
57.1142 134.0
57.129 132.0
57.1437 137.0
57.1585 135.0
57.1733 121.0
57.1881 121.0
57.2028 125.0
57.2176 108.0
57.2324 126.0
57.2471 147.0
57.2619 98.0
57.2767 123.0
57.2915 118.0
57.3062 125.0
57.321 128.0
57.3358 124.0
57.3505 120.0
57.3653 134.0
57.3801 125.0
57.3949 124.0
57.4096 115.0
57.4244 129.0
57.4392 122.0
57.4539 136.0
57.4687 107.0
57.4835 123.0
57.4983 113.0
57.513 124.0
57.5278 116.0
57.5426 128.0
57.5573 137.0
57.5721 117.0
57.5869 139.0
57.6017 114.0
57.6164 108.0
57.6312 130.0
57.646 120.0
57.6607 122.0
57.6755 136.0
57.6903 127.0
57.7051 115.0
57.7198 111.0
57.7346 117.0
57.7494 123.0
57.7641 155.0
57.7789 138.0
57.7937 132.0
57.8085 123.0
57.8232 133.0
57.838 141.0
57.8528 128.0
57.8675 118.0
57.8823 139.0
57.8971 141.0
57.9119 118.0
57.9266 138.0
57.9414 122.0
57.9562 127.0
57.9709 149.0
57.9857 140.0
58.0005 150.0
58.0153 138.0
58.03 174.0
58.0448 136.0
58.0596 142.0
58.0743 150.0
58.0891 140.0
58.1039 148.0
58.1187 140.0
58.1334 129.0
58.1482 126.0
58.163 139.0
58.1777 121.0
58.1925 138.0
58.2073 132.0
58.2221 125.0
58.2368 120.0
58.2516 134.0
58.2664 131.0
58.2811 123.0
58.2959 136.0
58.3107 117.0
58.3255 144.0
58.3402 138.0
58.355 148.0
58.3698 114.0
58.3845 110.0
58.3993 117.0
58.4141 125.0
58.4289 126.0
58.4436 143.0
58.4584 133.0
58.4732 128.0
58.4879 140.0
58.5027 110.0
58.5175 128.0
58.5323 108.0
58.547 139.0
58.5618 125.0
58.5766 130.0
58.5913 107.0
58.6061 113.0
58.6209 111.0
58.6357 104.0
58.6504 138.0
58.6652 120.0
58.68 122.0
58.6947 130.0
58.7095 130.0
58.7243 116.0
58.7391 131.0
58.7538 131.0
58.7686 135.0
58.7834 107.0
58.7981 132.0
58.8129 107.0
58.8277 127.0
58.8425 120.0
58.8572 140.0
58.872 120.0
58.8868 127.0
58.9015 118.0
58.9163 122.0
58.9311 125.0
58.9459 133.0
58.9606 120.0
58.9754 135.0
58.9902 117.0
59.0049 124.0
59.0197 116.0
59.0345 125.0
59.0493 148.0
59.064 129.0
59.0788 135.0
59.0936 134.0
59.1084 105.0
59.1231 138.0
59.1379 126.0
59.1527 115.0
59.1674 126.0
59.1822 130.0
59.197 124.0
59.2118 145.0
59.2265 131.0
59.2413 134.0
59.2561 131.0
59.2708 124.0
59.2856 116.0
59.3004 125.0
59.3152 110.0
59.3299 125.0
59.3447 137.0
59.3595 126.0
59.3742 133.0
59.389 139.0
59.4038 121.0
59.4186 131.0
59.4333 123.0
59.4481 127.0
59.4629 132.0
59.4776 133.0
59.4924 135.0
59.5072 124.0
59.522 130.0
59.5367 115.0
59.5515 123.0
59.5663 138.0
59.581 132.0
59.5958 127.0
59.6106 140.0
59.6254 117.0
59.6401 144.0
59.6549 117.0
59.6697 121.0
59.6844 125.0
59.6992 101.0
59.714 131.0
59.7288 122.0
59.7435 134.0
59.7583 125.0
59.7731 115.0
59.7878 142.0
59.8026 121.0
59.8174 118.0
59.8322 122.0
59.8469 115.0
59.8617 116.0
59.8765 118.0
59.8912 124.0
59.906 118.0
59.9208 120.0
59.9356 126.0
59.9503 124.0
59.9651 140.0
59.9799 105.0
59.9946 144.0
60.0094 121.0
60.0242 126.0
60.039 127.0
60.0537 130.0
60.0685 122.0
60.0833 137.0
60.098 123.0
60.1128 133.0
60.1276 125.0
60.1424 132.0
60.1571 122.0
60.1719 124.0
60.1867 127.0
60.2014 168.0
60.2162 151.0
60.231 119.0
60.2458 152.0
60.2605 156.0
60.2753 150.0
60.2901 149.0
60.3048 154.0
60.3196 148.0
60.3344 169.0
60.3492 156.0
60.3639 138.0
60.3787 131.0
60.3935 135.0
60.4082 139.0
60.423 121.0
60.4378 155.0
60.4526 157.0
60.4673 120.0
60.4821 118.0
60.4969 133.0
60.5116 148.0
60.5264 126.0
60.5412 154.0
60.556 132.0
60.5707 131.0
60.5855 142.0
60.6003 136.0
60.615 138.0
60.6298 148.0
60.6446 132.0
60.6594 162.0
60.6741 152.0
60.6889 159.0
60.7037 165.0
60.7184 175.0
60.7332 208.0
60.748 309.0
60.7628 363.0
60.7775 507.0
60.7923 804.0
60.8071 1118.0
60.8218 1338.0
60.8366 1377.0
60.8514 1195.0
60.8662 1002.0
60.8809 738.0
60.8957 638.0
60.9105 590.0
60.9252 574.0
60.94 434.0
60.9548 323.0
60.9696 263.0
60.9843 221.0
60.9991 210.0
61.0139 205.0
61.0287 166.0
61.0434 203.0
61.0582 172.0
61.073 189.0
61.0877 167.0
61.1025 166.0
61.1173 168.0
61.1321 166.0
61.1468 167.0
61.1616 146.0
61.1764 158.0
61.1911 174.0
61.2059 167.0
61.2207 152.0
61.2355 145.0
61.2502 156.0
61.265 155.0
61.2798 133.0
61.2945 144.0
61.3093 121.0
61.3241 147.0
61.3389 146.0
61.3536 127.0
61.3684 130.0
61.3832 141.0
61.3979 143.0
61.4127 131.0
61.4275 136.0
61.4423 157.0
61.457 160.0
61.4718 152.0
61.4866 153.0
61.5013 139.0
61.5161 119.0
61.5309 160.0
61.5457 106.0
61.5604 141.0
61.5752 130.0
61.59 151.0
61.6047 148.0
61.6195 136.0
61.6343 144.0
61.6491 154.0
61.6638 134.0
61.6786 146.0
61.6934 181.0
61.7081 133.0
61.7229 145.0
61.7377 102.0
61.7525 126.0
61.7672 139.0
61.782 138.0
61.7968 148.0
61.8115 136.0
61.8263 154.0
61.8411 151.0
61.8559 140.0
61.8706 133.0
61.8854 143.0
61.9002 129.0
61.9149 132.0
61.9297 154.0
61.9445 140.0
61.9593 139.0
61.974 144.0
61.9888 120.0
62.0036 145.0
62.0183 148.0
62.0331 134.0
62.0479 141.0
62.0627 150.0
62.0774 130.0
62.0922 135.0
62.107 141.0
62.1217 135.0
62.1365 135.0
62.1513 156.0
62.1661 121.0
62.1808 147.0
62.1956 150.0
62.2104 132.0
62.2251 142.0
62.2399 137.0
62.2547 147.0
62.2695 148.0
62.2842 127.0
62.299 145.0
62.3138 127.0
62.3285 154.0
62.3433 132.0
62.3581 153.0
62.3729 142.0
62.3876 173.0
62.4024 153.0
62.4172 129.0
62.4319 132.0
62.4467 146.0
62.4615 131.0
62.4763 161.0
62.491 153.0
62.5058 129.0
62.5206 144.0
62.5353 155.0
62.5501 151.0
62.5649 136.0
62.5797 114.0
62.5944 144.0
62.6092 130.0
62.624 132.0
62.6387 143.0
62.6535 131.0
62.6683 134.0
62.6831 146.0
62.6978 156.0
62.7126 113.0
62.7274 143.0
62.7421 121.0
62.7569 157.0
62.7717 135.0
62.7865 113.0
62.8012 164.0
62.816 154.0
62.8308 136.0
62.8456 129.0
62.8603 147.0
62.8751 150.0
62.8899 142.0
62.9046 143.0
62.9194 134.0
62.9342 146.0
62.949 142.0
62.9637 145.0
62.9785 143.0
62.9933 157.0
63.008 148.0
63.0228 148.0
63.0376 139.0
63.0524 128.0
63.0671 154.0
63.0819 137.0
63.0967 165.0
63.1114 143.0
63.1262 143.0
63.141 145.0
63.1558 147.0
63.1705 166.0
63.1853 142.0
63.2001 136.0
63.2148 148.0
63.2296 149.0
63.2444 157.0
63.2592 147.0
63.2739 158.0
63.2887 172.0
63.3035 166.0
63.3182 158.0
63.333 138.0
63.3478 151.0
63.3626 136.0
63.3773 144.0
63.3921 150.0
63.4069 135.0
63.4216 162.0
63.4364 149.0
63.4512 147.0
63.466 145.0
63.4807 139.0
63.4955 160.0
63.5103 138.0
63.525 173.0
63.5398 160.0
63.5546 158.0
63.5694 150.0
63.5841 141.0
63.5989 162.0
63.6137 137.0
63.6284 148.0
63.6432 154.0
63.658 149.0
63.6728 164.0
63.6875 172.0
63.7023 164.0
63.7171 160.0
63.7318 142.0
63.7466 170.0
63.7614 181.0
63.7762 169.0
63.7909 159.0
63.8057 181.0
63.8205 159.0
63.8352 158.0
63.85 157.0
63.8648 146.0
63.8796 180.0
63.8943 176.0
63.9091 149.0
63.9239 157.0
63.9386 193.0
63.9534 174.0
63.9682 162.0
63.983 161.0
63.9977 171.0
64.0125 195.0
64.0273 187.0
64.042 195.0
64.0568 178.0
64.0716 204.0
64.0864 192.0
64.1011 186.0
64.1159 182.0
64.1307 172.0
64.1454 186.0
64.1602 190.0
64.175 183.0
64.1898 189.0
64.2045 213.0
64.2193 240.0
64.2341 214.0
64.2488 215.0
64.2636 242.0
64.2784 243.0
64.2932 242.0
64.3079 211.0
64.3227 204.0
64.3375 228.0
64.3522 242.0
64.367 257.0
64.3818 257.0
64.3966 273.0
64.4113 260.0
64.4261 303.0
64.4409 298.0
64.4556 346.0
64.4704 307.0
64.4852 367.0
64.5 347.0
64.5147 392.0
64.5295 425.0
64.5443 415.0
64.559 428.0
64.5738 482.0
64.5886 517.0
64.6034 536.0
64.6181 594.0
64.6329 578.0
64.6477 644.0
64.6624 721.0
64.6772 775.0
64.692 829.0
64.7068 918.0
64.7215 1047.0
64.7363 1119.0
64.7511 1280.0
64.7659 1384.0
64.7806 1522.0
64.7954 1737.0
64.8102 1953.0
64.8249 2099.0
64.8397 2296.0
64.8545 2434.0
64.8693 2655.0
64.884 2736.0
64.8988 2849.0
64.9136 3037.0
64.9283 3150.0
64.9431 3199.0
64.9579 3146.0
64.9727 3209.0
64.9874 3251.0
65.0022 3096.0
65.017 3037.0
65.0317 2966.0
65.0465 2776.0
65.0613 2822.0
65.0761 2749.0
65.0908 2616.0
65.1056 2419.0
65.1204 2334.0
65.1351 2168.0
65.1499 2134.0
65.1647 1857.0
65.1795 1757.0
65.1942 1631.0
65.209 1515.0
65.2238 1419.0
65.2385 1326.0
65.2533 1214.0
65.2681 1053.0
65.2829 982.0
65.2976 783.0
65.3124 827.0
65.3272 750.0
65.3419 716.0
65.3567 662.0
65.3715 588.0
65.3863 538.0
65.401 510.0
65.4158 499.0
65.4306 502.0
65.4453 400.0
65.4601 395.0
65.4749 442.0
65.4897 351.0
65.5044 350.0
65.5192 348.0
65.534 374.0
65.5487 349.0
65.5635 326.0
65.5783 315.0
65.5931 313.0
65.6078 244.0
65.6226 281.0
65.6374 239.0
65.6521 284.0
65.6669 238.0
65.6817 273.0
65.6965 276.0
65.7112 238.0
65.726 229.0
65.7408 224.0
65.7555 278.0
65.7703 228.0
65.7851 235.0
65.7999 222.0
65.8146 220.0
65.8294 256.0
65.8442 239.0
65.8589 271.0
65.8737 239.0
65.8885 260.0
65.9033 268.0
65.918 219.0
65.9328 255.0
65.9476 271.0
65.9623 227.0
65.9771 279.0
65.9919 264.0
66.0067 263.0
66.0214 276.0
66.0362 269.0
66.051 260.0
66.0657 257.0
66.0805 268.0
66.0953 269.0
66.1101 273.0
66.1248 224.0
66.1396 277.0
66.1544 269.0
66.1691 228.0
66.1839 209.0
66.1987 264.0
66.2135 273.0
66.2282 218.0
66.243 288.0
66.2578 301.0
66.2725 298.0
66.2873 287.0
66.3021 273.0
66.3169 292.0
66.3316 275.0
66.3464 299.0
66.3612 277.0
66.3759 287.0
66.3907 278.0
66.4055 301.0
66.4203 293.0
66.435 301.0
66.4498 316.0
66.4646 330.0
66.4793 302.0
66.4941 321.0
66.5089 348.0
66.5237 354.0
66.5384 299.0
66.5532 365.0
66.568 348.0
66.5828 332.0
66.5975 347.0
66.6123 315.0
66.6271 355.0
66.6418 359.0
66.6566 379.0
66.6714 369.0
66.6862 348.0
66.7009 392.0
66.7157 366.0
66.7305 381.0
66.7452 362.0
66.76 414.0
66.7748 386.0
66.7896 432.0
66.8043 393.0
66.8191 385.0
66.8339 426.0
66.8486 422.0
66.8634 431.0
66.8782 462.0
66.893 437.0
66.9077 420.0
66.9225 457.0
66.9373 452.0
66.952 457.0
66.9668 469.0
66.9816 423.0
66.9964 468.0
67.0111 481.0
67.0259 481.0
67.0407 456.0
67.0554 493.0
67.0702 521.0
67.085 506.0
67.0998 538.0
67.1145 491.0
67.1293 456.0
67.1441 501.0
67.1588 558.0
67.1736 572.0
67.1884 537.0
67.2032 538.0
67.2179 575.0
67.2327 585.0
67.2475 558.0
67.2622 627.0
67.277 614.0
67.2918 582.0
67.3066 615.0
67.3213 645.0
67.3361 663.0
67.3509 653.0
67.3656 678.0
67.3804 672.0
67.3952 705.0
67.41 672.0
67.4247 711.0
67.4395 697.0
67.4543 761.0
67.469 758.0
67.4838 783.0
67.4986 766.0
67.5134 823.0
67.5281 871.0
67.5429 932.0
67.5577 833.0
67.5724 916.0
67.5872 942.0
67.602 913.0
67.6168 1009.0
67.6315 1048.0
67.6463 1093.0
67.6611 1146.0
67.6758 1286.0
67.6906 1242.0
67.7054 1387.0
67.7202 1551.0
67.7349 1748.0
67.7497 2012.0
67.7645 2254.0
67.7792 2723.0
67.794 3130.0
67.8088 3297.0
67.8236 3446.0
67.8383 3591.0
67.8531 3570.0
67.8679 3580.0
67.8826 3504.0
67.8974 3383.0
67.9122 3525.0
67.927 3535.0
67.9417 3731.0
67.9565 3989.0
67.9713 4556.0
67.986 5166.0
68.0008 5932.0
68.0156 7005.0
68.0304 8375.0
68.0451 10658.0
68.0599 14275.0
68.0747 19772.0
68.0894 30263.0
68.1042 53244.0
68.119 125816.0
68.1338 260750.0
68.1485 330098.0
68.1633 340107.0
68.1781 274470.0
68.1928 138850.0
68.2076 69152.0
68.2224 38584.0
68.2372 25091.0
68.2519 20312.0
68.2667 19329.0
68.2815 22820.0
68.2962 34454.0
68.311 69956.0
68.3258 124557.0
68.3406 166587.0
68.3553 168948.0
68.3701 137440.0
68.3849 81607.0
68.3996 38395.0
68.4144 22824.0
68.4292 13517.0
68.444 10126.0
68.4587 7412.0
68.4735 6269.0
68.4883 5096.0
68.5031 4602.0
68.5178 4026.0
68.5326 3669.0
68.5474 3286.0
68.5621 2979.0
68.5769 2645.0
68.5917 2580.0
68.6065 2205.0
68.6212 2259.0
68.636 2003.0
68.6508 1923.0
68.6655 1667.0
68.6803 1690.0
68.6951 1587.0
68.7099 1468.0
68.7246 1394.0
68.7394 1341.0
68.7542 1321.0
68.7689 1261.0
68.7837 1238.0
68.7985 1154.0
68.8133 1075.0
68.828 1048.0
68.8428 1017.0
68.8576 932.0
68.8723 916.0
68.8871 858.0
68.9019 935.0
68.9167 844.0
68.9314 760.0
68.9462 787.0
68.961 824.0
68.9757 748.0
68.9905 739.0
69.0053 684.0
69.0201 688.0
69.0348 685.0
69.0496 648.0
69.0644 666.0
69.0791 631.0
69.0939 658.0
69.1087 583.0
69.1235 612.0
69.1382 593.0
69.153 586.0
69.1678 556.0
69.1825 587.0
69.1973 553.0
69.2121 507.0
69.2269 503.0
69.2416 477.0
69.2564 470.0
69.2712 495.0
69.2859 458.0
69.3007 419.0
69.3155 436.0
69.3303 424.0
69.345 432.0
69.3598 409.0
69.3746 396.0
69.3893 359.0
69.4041 382.0
69.4189 377.0
69.4337 401.0
69.4484 376.0
69.4632 359.0
69.478 369.0
69.4927 337.0
69.5075 330.0
69.5223 337.0
69.5371 347.0
69.5518 344.0
69.5666 308.0
69.5814 339.0
69.5961 296.0
69.6109 266.0
69.6257 359.0
69.6405 287.0
69.6552 287.0
69.67 292.0
69.6848 286.0
69.6995 313.0
69.7143 290.0
69.7291 262.0
69.7439 277.0
69.7586 267.0
69.7734 226.0
69.7882 227.0
69.8029 260.0
69.8177 261.0
69.8325 224.0
69.8473 234.0
69.862 271.0
69.8768 216.0
69.8916 234.0
69.9063 259.0
69.9211 232.0
69.9359 227.0
69.9507 228.0
69.9654 205.0
69.9802 208.0
69.995 212.0
70.0097 211.0
70.0245 207.0
70.0393 219.0
70.0541 238.0
70.0688 191.0
70.0836 201.0
70.0984 200.0
70.1131 206.0
70.1279 211.0
70.1427 198.0
70.1575 218.0
70.1722 187.0
70.187 201.0
70.2018 193.0
70.2165 196.0
70.2313 164.0
70.2461 185.0
70.2609 211.0
70.2756 192.0
70.2904 205.0
70.3052 184.0
70.32 207.0
70.3347 176.0
70.3495 205.0
70.3643 193.0
70.379 168.0
70.3938 180.0
70.4086 175.0
70.4234 208.0
70.4381 188.0
70.4529 178.0
70.4677 179.0
70.4824 172.0
70.4972 200.0
70.512 160.0
70.5268 188.0
70.5415 170.0
70.5563 194.0
70.5711 178.0
70.5858 183.0
70.6006 175.0
70.6154 182.0
70.6302 184.0
70.6449 181.0
70.6597 170.0
70.6745 165.0
70.6892 185.0
70.704 193.0
70.7188 170.0
70.7336 170.0
70.7483 179.0
70.7631 176.0
70.7779 172.0
70.7926 163.0
70.8074 196.0
70.8222 171.0
70.837 190.0
70.8517 175.0
70.8665 150.0
70.8813 184.0
70.896 132.0
70.9108 177.0
70.9256 182.0
70.9404 149.0
70.9551 162.0
70.9699 152.0
70.9847 168.0
70.9994 186.0
71.0142 159.0
71.029 194.0
71.0438 163.0
71.0585 193.0
71.0733 165.0
71.0881 165.0
71.1028 142.0
71.1176 173.0
71.1324 148.0
71.1472 186.0
71.1619 154.0
71.1767 170.0
71.1915 149.0
71.2062 134.0
71.221 157.0
71.2358 176.0
71.2506 151.0
71.2653 156.0
71.2801 153.0
71.2949 174.0
71.3096 160.0
71.3244 150.0
71.3392 160.0
71.354 160.0
71.3687 180.0
71.3835 179.0
71.3983 183.0
71.413 176.0
71.4278 156.0
71.4426 151.0
71.4574 152.0
71.4721 186.0
71.4869 174.0
71.5017 153.0
71.5164 145.0
71.5312 159.0
71.546 151.0
71.5608 159.0
71.5755 156.0
71.5903 135.0
71.6051 149.0
71.6198 163.0
71.6346 168.0
71.6494 153.0
71.6642 161.0
71.6789 143.0
71.6937 143.0
71.7085 145.0
71.7232 162.0
71.738 177.0
71.7528 161.0
71.7676 128.0
71.7823 140.0
71.7971 155.0
71.8119 162.0
71.8266 138.0
71.8414 147.0
71.8562 156.0
71.871 154.0
71.8857 161.0
71.9005 161.0
71.9153 164.0
71.93 131.0
71.9448 149.0
71.9596 127.0
71.9744 133.0
71.9891 149.0
72.0039 153.0
72.0187 163.0
72.0334 135.0
72.0482 137.0
72.063 136.0
72.0778 148.0
72.0925 139.0
72.1073 136.0
72.1221 136.0
72.1368 131.0
72.1516 134.0
72.1664 123.0
72.1812 133.0
72.1959 139.0
72.2107 162.0
72.2255 128.0
72.2403 146.0
72.255 158.0
72.2698 130.0
72.2846 134.0
72.2993 150.0
72.3141 147.0
72.3289 167.0
72.3437 148.0
72.3584 114.0
72.3732 149.0
72.388 152.0
72.4027 153.0
72.4175 158.0
72.4323 130.0
72.4471 145.0
72.4618 128.0
72.4766 150.0
72.4914 128.0
72.5061 142.0
72.5209 145.0
72.5357 135.0
72.5505 130.0
72.5652 134.0
72.58 156.0
72.5948 167.0
72.6095 133.0
72.6243 138.0
72.6391 175.0
72.6539 140.0
72.6686 154.0
72.6834 132.0
72.6982 134.0
72.7129 145.0
72.7277 145.0
72.7425 130.0
72.7573 146.0
72.772 154.0
72.7868 127.0
72.8016 142.0
72.8163 140.0
72.8311 147.0
72.8459 161.0
72.8607 137.0
72.8754 148.0
72.8902 125.0
72.905 127.0
72.9197 138.0
72.9345 140.0
72.9493 140.0
72.9641 154.0
72.9788 137.0
72.9936 157.0
73.0084 149.0
73.0231 135.0
73.0379 148.0
73.0527 143.0
73.0675 152.0
73.0822 145.0
73.097 137.0
73.1118 145.0
73.1265 128.0
73.1413 138.0
73.1561 153.0
73.1709 155.0
73.1856 151.0
73.2004 147.0
73.2152 103.0
73.2299 153.0
73.2447 130.0
73.2595 134.0
73.2743 135.0
73.289 137.0
73.3038 137.0
73.3186 138.0
73.3333 152.0
73.3481 123.0
73.3629 156.0
73.3777 131.0
73.3924 137.0
73.4072 143.0
73.422 161.0
73.4367 149.0
73.4515 138.0
73.4663 149.0
73.4811 137.0
73.4958 152.0
73.5106 133.0
73.5254 143.0
73.5401 134.0
73.5549 135.0
73.5697 135.0
73.5845 144.0
73.5992 124.0
73.614 129.0
73.6288 143.0
73.6435 152.0
73.6583 139.0
73.6731 148.0
73.6879 139.0
73.7026 132.0
73.7174 144.0
73.7322 138.0
73.7469 124.0
73.7617 144.0
73.7765 126.0
73.7913 138.0
73.806 133.0
73.8208 121.0
73.8356 159.0
73.8503 143.0
73.8651 136.0
73.8799 143.0
73.8947 142.0
73.9094 136.0
73.9242 132.0
73.939 109.0
73.9537 140.0
73.9685 149.0
73.9833 132.0
73.9981 137.0
74.0128 130.0
74.0276 134.0
74.0424 136.0
74.0571 145.0
74.0719 118.0
74.0867 162.0
74.1015 116.0
74.1162 144.0
74.131 128.0
74.1458 128.0
74.1606 138.0
74.1753 140.0
74.1901 127.0
74.2049 146.0
74.2196 141.0
74.2344 138.0
74.2492 155.0
74.264 133.0
74.2787 152.0
74.2935 130.0
74.3083 149.0
74.323 144.0
74.3378 141.0
74.3526 136.0
74.3674 135.0
74.3821 125.0
74.3969 134.0
74.4117 140.0
74.4264 158.0
74.4412 120.0
74.456 125.0
74.4708 158.0
74.4855 119.0
74.5003 145.0
74.5151 141.0
74.5298 150.0
74.5446 129.0
74.5594 143.0
74.5742 127.0
74.5889 153.0
74.6037 121.0
74.6185 155.0
74.6332 129.0
74.648 155.0
74.6628 150.0
74.6776 135.0
74.6923 135.0
74.7071 143.0
74.7219 156.0
74.7366 133.0
74.7514 144.0
74.7662 130.0
74.781 130.0
74.7957 149.0
74.8105 131.0
74.8253 152.0
74.84 143.0
74.8548 145.0
74.8696 140.0
74.8844 126.0
74.8991 148.0
74.9139 116.0
74.9287 143.0
74.9434 143.0
74.9582 136.0
74.973 138.0
74.9878 147.0
74.9976 144.0