File: XRD_data/W6911m/XRD_Omega/w6911m_m-Cr2O3_scan_omega_4deg_step_0.005deg0_2.xy
30.12630 66.0
30.13130 89.0
30.13630 90.0
30.14130 82.0
30.14630 88.0
30.15130 84.0
30.15630 88.0
30.16130 92.0
30.16630 85.0
30.17130 60.0
30.17630 77.0
30.18130 80.0
30.18630 68.0
30.19130 74.0
30.19630 96.0
30.20130 93.0
30.20630 96.0
30.21130 74.0
30.21630 80.0
30.22130 101.0
30.22630 82.0
30.23130 86.0
30.23630 88.0
30.24130 89.0
30.24630 102.0
30.25130 86.0
30.25630 90.0
30.26130 85.0
30.26630 90.0
30.27130 67.0
30.27630 84.0
30.28130 90.0
30.28630 106.0
30.29130 94.0
30.29630 80.0
30.30130 80.0
30.30630 67.0
30.31130 89.0
30.31630 72.0
30.32130 83.0
30.32630 100.0
30.33130 68.0
30.33630 97.0
30.34130 96.0
30.34630 76.0
30.35130 98.0
30.35630 91.0
30.36130 75.0
30.36630 102.0
30.37130 87.0
30.37630 90.0
30.38130 103.0
30.38630 86.0
30.39130 83.0
30.39630 85.0
30.40130 91.0
30.40630 91.0
30.41130 93.0
30.41630 108.0
30.42130 97.0
30.42630 90.0
30.43130 82.0
30.43630 104.0
30.44130 82.0
30.44630 94.0
30.45130 85.0
30.45630 97.0
30.46130 92.0
30.46630 89.0
30.47130 95.0
30.47630 96.0
30.48130 81.0
30.48630 80.0
30.49130 92.0
30.49630 97.0
30.50130 77.0
30.50630 89.0
30.51130 91.0
30.51630 87.0
30.52130 72.0
30.52630 97.0
30.53130 97.0
30.53630 68.0
30.54130 98.0
30.54630 80.0
30.55130 96.0
30.55630 74.0
30.56130 101.0
30.56630 109.0
30.57130 94.0
30.57630 98.0
30.58130 98.0
30.58630 91.0
30.59130 80.0
30.59630 95.0
30.60130 82.0
30.60630 89.0
30.61130 83.0
30.61630 111.0
30.62130 121.0
30.62630 94.0
30.63130 109.0
30.63630 96.0
30.64130 114.0
30.64630 81.0
30.65130 91.0
30.65630 109.0
30.66130 78.0
30.66630 95.0
30.67130 94.0
30.67630 103.0
30.68130 102.0
30.68630 97.0
30.69130 98.0
30.69630 92.0
30.70130 107.0
30.70630 91.0
30.71130 106.0
30.71630 82.0
30.72130 108.0
30.72630 95.0
30.73130 95.0
30.73630 79.0
30.74130 99.0
30.74630 101.0
30.75130 103.0
30.75630 101.0
30.76130 117.0
30.76630 103.0
30.77130 96.0
30.77630 109.0
30.78130 89.0
30.78630 112.0
30.79130 96.0
30.79630 114.0
30.80130 93.0
30.80630 103.0
30.81130 93.0
30.81630 117.0
30.82130 112.0
30.82630 106.0
30.83130 107.0
30.83630 107.0
30.84130 126.0
30.84630 105.0
30.85130 101.0
30.85630 106.0
30.86130 105.0
30.86630 113.0
30.87130 118.0
30.87630 116.0
30.88130 123.0
30.88630 108.0
30.89130 129.0
30.89630 115.0
30.90130 115.0
30.90630 127.0
30.91130 116.0
30.91630 136.0
30.92130 130.0
30.92630 133.0
30.93130 138.0
30.93630 121.0
30.94130 114.0
30.94630 144.0
30.95130 102.0
30.95630 134.0
30.96130 118.0
30.96630 122.0
30.97130 120.0
30.97630 143.0
30.98130 132.0
30.98630 129.0
30.99130 141.0
30.99630 126.0
31.00130 135.0
31.00630 146.0
31.01130 133.0
31.01630 142.0
31.02130 157.0
31.02630 165.0
31.03130 132.0
31.03630 136.0
31.04130 140.0
31.04630 163.0
31.05130 168.0
31.05630 118.0
31.06130 148.0
31.06630 170.0
31.07130 161.0
31.07630 151.0
31.08130 145.0
31.08630 165.0
31.09130 154.0
31.09630 163.0
31.10130 149.0
31.10630 146.0
31.11130 155.0
31.11630 168.0
31.12130 195.0
31.12630 177.0
31.13130 181.0
31.13630 169.0
31.14130 192.0
31.14630 175.0
31.15130 161.0
31.15630 182.0
31.16130 182.0
31.16630 169.0
31.17130 191.0
31.17630 197.0
31.18130 196.0
31.18630 182.0
31.19130 221.0
31.19630 215.0
31.20130 197.0
31.20630 179.0
31.21130 212.0
31.21630 200.0
31.22130 200.0
31.22630 219.0
31.23130 207.0
31.23630 244.0
31.24130 192.0
31.24630 225.0
31.25130 231.0
31.25630 262.0
31.26130 239.0
31.26630 221.0
31.27130 256.0
31.27630 260.0
31.28130 275.0
31.28630 238.0
31.29130 245.0
31.29630 275.0
31.30130 263.0
31.30630 251.0
31.31130 272.0
31.31630 268.0
31.32130 304.0
31.32630 287.0
31.33130 323.0
31.33630 291.0
31.34130 311.0
31.34630 316.0
31.35130 336.0
31.35630 346.0
31.36130 300.0
31.36630 320.0
31.37130 368.0
31.37630 333.0
31.38130 350.0
31.38630 362.0
31.39130 395.0
31.39630 354.0
31.40130 354.0
31.40630 414.0
31.41130 395.0
31.41630 389.0
31.42130 390.0
31.42630 375.0
31.43130 370.0
31.43630 401.0
31.44130 439.0
31.44630 424.0
31.45130 434.0
31.45630 444.0
31.46130 473.0
31.46630 433.0
31.47130 521.0
31.47630 517.0
31.48130 477.0
31.48630 525.0
31.49130 477.0
31.49630 538.0
31.50130 552.0
31.50630 535.0
31.51130 539.0
31.51630 553.0
31.52130 603.0
31.52630 619.0
31.53130 602.0
31.53630 552.0
31.54130 656.0
31.54630 640.0
31.55130 627.0
31.55630 600.0
31.56130 701.0
31.56630 712.0
31.57130 714.0
31.57630 661.0
31.58130 690.0
31.58630 700.0
31.59130 778.0
31.59630 753.0
31.60130 709.0
31.60630 801.0
31.61130 776.0
31.61630 804.0
31.62130 775.0
31.62630 822.0
31.63130 865.0
31.63630 773.0
31.64130 889.0
31.64630 870.0
31.65130 860.0
31.65630 889.0
31.66130 953.0
31.66630 898.0
31.67130 931.0
31.67630 1007.0
31.68130 969.0
31.68630 943.0
31.69130 993.0
31.69630 1028.0
31.70130 1002.0
31.70630 1023.0
31.71130 1068.0
31.71630 1015.0
31.72130 1056.0
31.72630 1129.0
31.73130 1161.0
31.73630 1126.0
31.74130 1148.0
31.74630 1209.0
31.75130 1193.0
31.75630 1219.0
31.76130 1169.0
31.76630 1255.0
31.77130 1285.0
31.77630 1287.0
31.78130 1259.0
31.78630 1337.0
31.79130 1363.0
31.79630 1329.0
31.80130 1363.0
31.80630 1334.0
31.81130 1410.0
31.81630 1398.0
31.82130 1395.0
31.82630 1430.0
31.83130 1466.0
31.83630 1514.0
31.84130 1493.0
31.84630 1465.0
31.85130 1505.0
31.85630 1505.0
31.86130 1537.0
31.86630 1569.0
31.87130 1557.0
31.87630 1570.0
31.88130 1608.0
31.88630 1644.0
31.89130 1688.0
31.89630 1666.0
31.90130 1697.0
31.90630 1767.0
31.91130 1710.0
31.91630 1721.0
31.92130 1676.0
31.92630 1702.0
31.93130 1673.0
31.93630 1770.0
31.94130 1773.0
31.94630 1745.0
31.95130 1649.0
31.95630 1744.0
31.96130 1872.0
31.96630 1803.0
31.97130 1850.0
31.97630 1854.0
31.98130 1819.0
31.98630 1886.0
31.99130 1831.0
31.99630 1826.0
32.00130 1926.0
32.00630 1805.0
32.01130 1869.0
32.01630 1850.0
32.02130 1825.0
32.02630 1950.0
32.03130 1994.0
32.03630 1977.0
32.04130 1883.0
32.04630 1911.0
32.05130 1912.0
32.05630 1835.0
32.06130 1923.0
32.06630 1918.0
32.07130 1833.0
32.07630 1924.0
32.08130 1924.0
32.08630 1918.0
32.09130 1978.0
32.09630 1880.0
32.10130 1907.0
32.10630 1969.0
32.11130 1979.0
32.11630 2038.0
32.12130 1872.0
32.12630 1913.0
32.13130 1953.0
32.13630 1889.0
32.14130 1904.0
32.14630 1860.0
32.15130 1876.0
32.15630 1874.0
32.16130 1896.0
32.16630 1889.0
32.17130 1874.0
32.17630 1830.0
32.18130 1902.0
32.18630 1918.0
32.19130 1895.0
32.19630 1937.0
32.20130 1961.0
32.20630 1910.0
32.21130 1807.0
32.21630 1846.0
32.22130 1800.0
32.22630 1778.0
32.23130 1871.0
32.23630 1845.0
32.24130 1837.0
32.24630 1820.0
32.25130 1777.0
32.25630 1810.0
32.26130 1736.0
32.26630 1833.0
32.27130 1752.0
32.27630 1727.0
32.28130 1678.0
32.28630 1638.0
32.29130 1734.0
32.29630 1608.0
32.30130 1719.0
32.30630 1774.0
32.31130 1690.0
32.31630 1687.0
32.32130 1618.0
32.32630 1640.0
32.33130 1631.0
32.33630 1594.0
32.34130 1588.0
32.34630 1620.0
32.35130 1535.0
32.35630 1608.0
32.36130 1578.0
32.36630 1542.0
32.37130 1600.0
32.37630 1632.0
32.38130 1480.0
32.38630 1525.0
32.39130 1538.0
32.39630 1410.0
32.40130 1404.0
32.40630 1472.0
32.41130 1407.0
32.41630 1367.0
32.42130 1380.0
32.42630 1340.0
32.43130 1368.0
32.43630 1302.0
32.44130 1329.0
32.44630 1337.0
32.45130 1286.0
32.45630 1243.0
32.46130 1278.0
32.46630 1202.0
32.47130 1197.0
32.47630 1215.0
32.48130 1211.0
32.48630 1245.0
32.49130 1223.0
32.49630 1194.0
32.50130 1159.0
32.50630 1142.0
32.51130 1068.0
32.51630 1092.0
32.52130 1072.0
32.52630 998.0
32.53130 993.0
32.53630 1016.0
32.54130 1056.0
32.54630 976.0
32.55130 898.0
32.55630 960.0
32.56130 915.0
32.56630 904.0
32.57130 889.0
32.57630 914.0
32.58130 876.0
32.58630 865.0
32.59130 846.0
32.59630 788.0
32.60130 836.0
32.60630 805.0
32.61130 802.0
32.61630 815.0
32.62130 777.0
32.62630 744.0
32.63130 743.0
32.63630 773.0
32.64130 806.0
32.64630 699.0
32.65130 687.0
32.65630 688.0
32.66130 670.0
32.66630 670.0
32.67130 665.0
32.67630 666.0
32.68130 651.0
32.68630 600.0
32.69130 604.0
32.69630 572.0
32.70130 626.0
32.70630 624.0
32.71130 591.0
32.71630 595.0
32.72130 587.0
32.72630 567.0
32.73130 544.0
32.73630 594.0
32.74130 563.0
32.74630 529.0
32.75130 563.0
32.75630 509.0
32.76130 525.0
32.76630 524.0
32.77130 495.0
32.77630 451.0
32.78130 474.0
32.78630 450.0
32.79130 463.0
32.79630 521.0
32.80130 453.0
32.80630 482.0
32.81130 459.0
32.81630 430.0
32.82130 440.0
32.82630 421.0
32.83130 396.0
32.83630 386.0
32.84130 390.0
32.84630 373.0
32.85130 395.0
32.85630 365.0
32.86130 381.0
32.86630 373.0
32.87130 382.0
32.87630 375.0
32.88130 370.0
32.88630 365.0
32.89130 335.0
32.89630 351.0
32.90130 359.0
32.90630 312.0
32.91130 307.0
32.91630 325.0
32.92130 300.0
32.92630 295.0
32.93130 272.0
32.93630 303.0
32.94130 294.0
32.94630 293.0
32.95130 301.0
32.95630 322.0
32.96130 309.0
32.96630 299.0
32.97130 286.0
32.97630 269.0
32.98130 258.0
32.98630 279.0
32.99130 279.0
32.99630 261.0
33.00130 259.0
33.00630 252.0
33.01130 221.0
33.01630 251.0
33.02130 231.0
33.02630 233.0
33.03130 224.0
33.03630 245.0
33.04130 203.0
33.04630 239.0
33.05130 248.0
33.05630 221.0
33.06130 240.0
33.06630 179.0
33.07130 213.0
33.07630 187.0
33.08130 236.0
33.08630 213.0
33.09130 183.0
33.09630 202.0
33.10130 205.0
33.10630 220.0
33.11130 186.0
33.11630 188.0
33.12130 194.0
33.12630 203.0
33.13130 201.0
33.13630 181.0
33.14130 191.0
33.14630 160.0
33.15130 204.0
33.15630 179.0
33.16130 178.0
33.16630 161.0
33.17130 152.0
33.17630 161.0
33.18130 174.0
33.18630 181.0
33.19130 172.0
33.19630 155.0
33.20130 138.0
33.20630 165.0
33.21130 172.0
33.21630 160.0
33.22130 169.0
33.22630 141.0
33.23130 182.0
33.23630 136.0
33.24130 148.0
33.24630 150.0
33.25130 159.0
33.25630 176.0
33.26130 163.0
33.26630 146.0
33.27130 144.0
33.27630 169.0
33.28130 144.0
33.28630 145.0
33.29130 154.0
33.29630 141.0
33.30130 148.0
33.30630 130.0
33.31130 104.0
33.31630 106.0
33.32130 122.0
33.32630 125.0
33.33130 138.0
33.33630 132.0
33.34130 123.0
33.34630 107.0
33.35130 126.0
33.35630 137.0
33.36130 132.0
33.36630 113.0
33.37130 124.0
33.37630 105.0
33.38130 120.0
33.38630 132.0
33.39130 119.0
33.39630 103.0
33.40130 126.0
33.40630 103.0
33.41130 115.0
33.41630 92.0
33.42130 108.0
33.42630 119.0
33.43130 119.0
33.43630 129.0
33.44130 126.0
33.44630 97.0
33.45130 111.0
33.45630 102.0
33.46130 102.0
33.46630 127.0
33.47130 89.0
33.47630 99.0
33.48130 97.0
33.48630 108.0
33.49130 115.0
33.49630 117.0
33.50130 130.0
33.50630 96.0
33.51130 95.0
33.51630 90.0
33.52130 100.0
33.52630 93.0
33.53130 92.0
33.53630 100.0
33.54130 94.0
33.54630 107.0
33.55130 92.0
33.55630 100.0
33.56130 86.0
33.56630 88.0
33.57130 90.0
33.57630 103.0
33.58130 93.0
33.58630 90.0
33.59130 97.0
33.59630 82.0
33.60130 106.0
33.60630 101.0
33.61130 87.0
33.61630 100.0
33.62130 92.0
33.62630 93.0
33.63130 91.0
33.63630 104.0
33.64130 94.0
33.64630 98.0
33.65130 79.0
33.65630 85.0
33.66130 83.0
33.66630 98.0
33.67130 85.0
33.67630 95.0
33.68130 93.0
33.68630 111.0
33.69130 98.0
33.69630 99.0
33.70130 86.0
33.70630 90.0
33.71130 96.0
33.71630 87.0
33.72130 88.0
33.72630 103.0
33.73130 92.0
33.73630 86.0
33.74130 86.0
33.74630 94.0
33.75130 88.0
33.75630 94.0
33.76130 94.0
33.76630 77.0
33.77130 103.0
33.77630 83.0
33.78130 78.0
33.78630 88.0
33.79130 87.0
33.79630 99.0
33.80130 77.0
33.80630 82.0
33.81130 81.0
33.81630 88.0
33.82130 71.0
33.82630 80.0
33.83130 92.0
33.83630 101.0
33.84130 94.0
33.84630 81.0
33.85130 96.0
33.85630 75.0
33.86130 96.0
33.86630 97.0
33.87130 79.0
33.87630 88.0
33.88130 87.0
33.88630 81.0
33.89130 78.0
33.89630 95.0
33.90130 72.0
33.90630 82.0
33.91130 71.0
33.91630 65.0
33.92130 88.0
33.92630 73.0
33.93130 64.0
33.93630 86.0
33.94130 74.0
33.94630 68.0
33.95130 105.0
33.95630 91.0
33.96130 87.0
33.96630 78.0
33.97130 88.0
33.97630 84.0
33.98130 77.0
33.98630 70.0
33.99130 84.0
33.99630 83.0
34.00130 64.0
34.00630 89.0
34.01130 70.0
34.01630 71.0
34.02130 82.0
34.02630 72.0
34.03130 98.0
34.03630 63.0
34.04130 67.0
34.04630 85.0
34.05130 88.0
34.05630 70.0
34.06130 75.0
34.06630 78.0
34.07130 71.0
34.07630 80.0
34.08130 75.0
34.08630 83.0