File: XRD_data/W6725/XRD_Phi/W6725_Cr2O3_phi_360deg_2h_5.xy
-143.8500 1446.0
-143.6100 2893.0
-143.3700 5673.0
-143.1300 7021.0
-142.8900 4319.0
-142.6500 2396.0
-142.4100 1458.0
-142.1700 974.0
-141.9300 786.0
-141.6900 617.0
-141.4500 505.0
-141.2100 389.0
-140.9700 314.0
-140.7300 267.0
-140.4900 264.0
-140.2500 176.0
-140.0100 178.0
-139.7700 145.0
-139.5300 134.0
-139.2900 103.0
-139.0500 121.0
-138.8100 112.0
-138.5700 112.0
-138.3300 121.0
-138.0900 121.0
-137.8500 108.0
-137.6100 115.0
-137.3700 110.0
-137.1300 97.0
-136.8900 102.0
-136.6500 102.0
-136.4100 120.0
-136.1700 97.0
-135.9300 113.0
-135.6900 91.0
-135.4500 116.0
-135.2100 114.0
-134.9700 121.0
-134.7300 110.0
-134.4900 115.0
-134.2500 110.0
-134.0100 105.0
-133.7700 117.0
-133.5300 106.0
-133.2900 110.0
-133.0500 92.0
-132.8100 93.0
-132.5700 105.0
-132.3300 103.0
-132.0900 92.0
-131.8500 112.0
-131.6100 111.0
-131.3700 132.0
-131.1300 120.0
-130.8900 86.0
-130.6500 99.0
-130.4100 110.0
-130.1700 97.0
-129.9300 91.0
-129.6900 127.0
-129.4500 97.0
-129.2100 97.0
-128.9700 91.0
-128.7300 110.0
-128.4900 113.0
-128.2500 106.0
-128.0100 141.0
-127.7700 132.0
-127.5300 90.0
-127.2900 118.0
-127.0500 117.0
-126.8100 105.0
-126.5700 103.0
-126.3300 110.0
-126.0900 114.0
-125.8500 109.0
-125.6100 104.0
-125.3700 105.0
-125.1300 118.0
-124.8900 104.0
-124.6500 98.0
-124.4100 107.0
-124.1700 108.0
-123.9300 115.0
-123.6900 96.0
-123.4500 123.0
-123.2100 120.0
-122.9700 94.0
-122.7300 108.0
-122.4900 130.0
-122.2500 105.0
-122.0100 116.0
-121.7700 114.0
-121.5300 99.0
-121.2900 111.0
-121.0500 101.0
-120.8100 112.0
-120.5700 106.0
-120.3300 97.0
-120.0900 101.0
-119.8500 104.0
-119.6100 104.0
-119.3700 105.0
-119.1300 93.0
-118.8900 107.0
-118.6500 111.0
-118.4100 116.0
-118.1700 103.0
-117.9300 123.0
-117.6900 109.0
-117.4500 111.0
-117.2100 104.0
-116.9700 130.0
-116.7300 114.0
-116.4900 107.0
-116.2500 117.0
-116.0100 100.0
-115.7700 100.0
-115.5300 91.0
-115.2900 103.0
-115.0500 96.0
-114.8100 95.0
-114.5700 107.0
-114.3300 97.0
-114.0900 100.0
-113.8500 107.0
-113.6100 100.0
-113.3700 101.0
-113.1300 112.0
-112.8900 100.0
-112.6500 115.0
-112.4100 107.0
-112.1700 79.0
-111.9300 102.0
-111.6900 110.0
-111.4500 100.0
-111.2100 100.0
-110.9700 87.0
-110.7300 107.0
-110.4900 118.0
-110.2500 105.0
-110.0100 116.0
-109.7700 105.0
-109.5300 98.0
-109.2900 102.0
-109.0500 90.0
-108.8100 108.0
-108.5700 104.0
-108.3300 104.0
-108.0900 81.0
-107.8500 105.0
-107.6100 106.0
-107.3700 94.0
-107.1300 107.0
-106.8900 103.0
-106.6500 103.0
-106.4100 112.0
-106.1700 86.0
-105.9300 118.0
-105.6900 100.0
-105.4500 92.0
-105.2100 99.0
-104.9700 115.0
-104.7300 114.0
-104.4900 106.0
-104.2500 90.0
-104.0100 89.0
-103.7700 78.0
-103.5300 90.0
-103.2900 107.0
-103.0500 115.0
-102.8100 81.0
-102.5700 102.0
-102.3300 87.0
-102.0900 95.0
-101.8500 109.0
-101.6100 79.0
-101.3700 89.0
-101.1300 100.0
-100.8900 89.0
-100.6500 72.0
-100.4100 101.0
-100.1700 106.0
-99.9300 108.0
-99.6900 92.0
-99.4500 109.0
-99.2100 108.0
-98.9700 90.0
-98.7300 91.0
-98.4900 72.0
-98.2500 92.0
-98.0100 97.0
-97.7700 81.0
-97.5300 103.0
-97.2900 92.0
-97.0500 78.0
-96.8100 90.0
-96.5700 104.0
-96.3300 88.0
-96.0900 96.0
-95.8500 92.0
-95.6100 99.0
-95.3700 92.0
-95.1300 90.0
-94.8900 79.0
-94.6500 97.0
-94.4100 91.0
-94.1700 94.0
-93.9300 92.0
-93.6900 88.0
-93.4500 113.0
-93.2100 82.0
-92.9700 84.0
-92.7300 82.0
-92.4900 84.0
-92.2500 96.0
-92.0100 92.0
-91.7700 98.0
-91.5300 101.0
-91.2900 100.0
-91.0500 110.0
-90.8100 96.0
-90.5700 91.0
-90.3300 74.0
-90.0900 82.0
-89.8500 101.0
-89.6100 102.0
-89.3700 100.0
-89.1300 103.0
-88.8900 85.0
-88.6500 92.0
-88.4100 84.0
-88.1700 110.0
-87.9300 97.0
-87.6900 92.0
-87.4500 87.0
-87.2100 103.0
-86.9700 91.0
-86.7300 100.0
-86.4900 90.0
-86.2500 75.0
-86.0100 78.0
-85.7700 91.0
-85.5300 79.0
-85.2900 71.0
-85.0500 83.0
-84.8100 105.0
-84.5700 80.0
-84.3300 95.0
-84.0900 102.0
-83.8500 95.0
-83.6100 112.0
-83.3700 97.0
-83.1300 88.0
-82.8900 93.0
-82.6500 73.0
-82.4100 93.0
-82.1700 108.0
-81.9300 99.0
-81.6900 82.0
-81.4500 85.0
-81.2100 84.0
-80.9700 109.0
-80.7300 100.0
-80.4900 68.0
-80.2500 82.0
-80.0100 97.0
-79.7700 99.0
-79.5300 82.0
-79.2900 100.0
-79.0500 103.0
-78.8100 104.0
-78.5700 108.0
-78.3300 65.0
-78.0900 90.0
-77.8500 84.0
-77.6100 100.0
-77.3700 115.0
-77.1300 104.0
-76.8900 90.0
-76.6500 102.0
-76.4100 95.0
-76.1700 119.0
-75.9300 117.0
-75.6900 99.0
-75.4500 99.0
-75.2100 108.0
-74.9700 97.0
-74.7300 97.0
-74.4900 96.0
-74.2500 109.0
-74.0100 102.0
-73.7700 118.0
-73.5300 97.0
-73.2900 113.0
-73.0500 115.0
-72.8100 119.0
-72.5700 122.0
-72.3300 97.0
-72.0900 99.0
-71.8500 108.0
-71.6100 114.0
-71.3700 112.0
-71.1300 111.0
-70.8900 100.0
-70.6500 94.0
-70.4100 104.0
-70.1700 107.0
-69.9300 105.0
-69.6900 106.0
-69.4500 102.0
-69.2100 100.0
-68.9700 100.0
-68.7300 112.0
-68.4900 109.0
-68.2500 106.0
-68.0100 98.0
-67.7700 112.0
-67.5300 102.0
-67.2900 116.0
-67.0500 121.0
-66.8100 107.0
-66.5700 113.0
-66.3300 103.0
-66.0900 101.0
-65.8500 121.0
-65.6100 100.0
-65.3700 99.0
-65.1300 131.0
-64.8900 99.0
-64.6500 110.0
-64.4100 113.0
-64.1700 120.0
-63.9300 115.0
-63.6900 108.0
-63.4500 116.0
-63.2100 98.0
-62.9700 119.0
-62.7300 133.0
-62.4900 90.0
-62.2500 129.0
-62.0100 109.0
-61.7700 122.0
-61.5300 84.0
-61.2900 108.0
-61.0500 100.0
-60.8100 127.0
-60.5700 122.0
-60.3300 101.0
-60.0900 111.0
-59.8500 106.0
-59.6100 132.0
-59.3700 111.0
-59.1300 109.0
-58.8900 112.0
-58.6500 118.0
-58.4100 109.0
-58.1700 109.0
-57.9300 124.0
-57.6900 131.0
-57.4500 117.0
-57.2100 103.0
-56.9700 109.0
-56.7300 92.0
-56.4900 128.0
-56.2500 119.0
-56.0100 111.0
-55.7700 123.0
-55.5300 107.0
-55.2900 112.0
-55.0500 114.0
-54.8100 123.0
-54.5700 118.0
-54.3300 112.0
-54.0900 104.0
-53.8500 107.0
-53.6100 105.0
-53.3700 123.0
-53.1300 121.0
-52.8900 136.0
-52.6500 131.0
-52.4100 107.0
-52.1700 125.0
-51.9300 98.0
-51.6900 109.0
-51.4500 108.0
-51.2100 120.0
-50.9700 123.0
-50.7300 92.0
-50.4900 109.0
-50.2500 87.0
-50.0100 116.0
-49.7700 127.0
-49.5300 122.0
-49.2900 94.0
-49.0500 118.0
-48.8100 122.0
-48.5700 121.0
-48.3300 107.0
-48.0900 125.0
-47.8500 110.0
-47.6100 115.0
-47.3700 138.0
-47.1300 119.0
-46.8900 90.0
-46.6500 108.0
-46.4100 126.0
-46.1700 108.0
-45.9300 122.0
-45.6900 115.0
-45.4500 117.0
-45.2100 110.0
-44.9700 129.0
-44.7300 126.0
-44.4900 122.0
-44.2500 133.0
-44.0100 95.0
-43.7700 121.0
-43.5300 116.0
-43.2900 129.0
-43.0500 118.0
-42.8100 121.0
-42.5700 101.0
-42.3300 95.0
-42.0900 109.0
-41.8500 115.0
-41.6100 103.0
-41.3700 117.0
-41.1300 119.0
-40.8900 111.0
-40.6500 106.0
-40.4100 126.0
-40.1700 129.0
-39.9300 119.0
-39.6900 114.0
-39.4500 129.0
-39.2100 120.0
-38.9700 148.0
-38.7300 160.0
-38.4900 171.0
-38.2500 160.0
-38.0100 210.0
-37.7700 267.0
-37.5300 327.0
-37.2900 390.0
-37.0500 488.0
-36.8100 622.0
-36.5700 748.0
-36.3300 966.0
-36.0900 1334.0
-35.8500 2153.0
-35.6100 4000.0
-35.3700 6733.0
-35.1300 6135.0
-34.8900 3034.0
-34.6500 1317.0
-34.4100 658.0
-34.1700 476.0
-33.9300 361.0
-33.6900 286.0
-33.4500 239.0
-33.2100 204.0
-32.9700 215.0
-32.7300 165.0
-32.4900 171.0
-32.2500 173.0
-32.0100 149.0
-31.7700 145.0
-31.5300 138.0
-31.2900 126.0
-31.0500 116.0
-30.8100 127.0
-30.5700 139.0
-30.3300 108.0
-30.0900 131.0
-29.8500 123.0
-29.6100 121.0
-29.3700 108.0
-29.1300 145.0
-28.8900 125.0
-28.6500 118.0
-28.4100 121.0
-28.1700 93.0
-27.9300 122.0
-27.6900 147.0
-27.4500 124.0
-27.2100 114.0
-26.9700 101.0
-26.7300 121.0
-26.4900 132.0
-26.2500 124.0
-26.0100 122.0
-25.7700 117.0
-25.5300 109.0
-25.2900 97.0
-25.0500 117.0
-24.8100 102.0
-24.5700 116.0
-24.3300 129.0
-24.0900 127.0
-23.8500 115.0
-23.6100 104.0
-23.3700 96.0
-23.1300 112.0
-22.8900 104.0
-22.6500 112.0
-22.4100 125.0
-22.1700 113.0
-21.9300 102.0
-21.6900 116.0
-21.4500 114.0
-21.2100 95.0
-20.9700 94.0
-20.7300 97.0
-20.4900 106.0
-20.2500 94.0
-20.0100 99.0
-19.7700 115.0
-19.5300 102.0
-19.2900 108.0
-19.0500 114.0
-18.8100 126.0
-18.5700 135.0
-18.3300 107.0
-18.0900 103.0
-17.8500 106.0
-17.6100 120.0
-17.3700 107.0
-17.1300 106.0
-16.8900 124.0
-16.6500 114.0
-16.4100 119.0
-16.1700 118.0
-15.9300 105.0
-15.6900 107.0
-15.4500 115.0
-15.2100 112.0
-14.9700 106.0
-14.7300 110.0
-14.4900 121.0
-14.2500 99.0
-14.0100 96.0
-13.7700 107.0
-13.5300 99.0
-13.2900 122.0
-13.0500 106.0
-12.8100 111.0
-12.5700 97.0
-12.3300 77.0
-12.0900 120.0
-11.8500 109.0
-11.6100 120.0
-11.3700 113.0
-11.1300 108.0
-10.8900 105.0
-10.6500 94.0
-10.4100 91.0
-10.1700 102.0
-9.9300 81.0
-9.6900 119.0
-9.4500 84.0
-9.2100 105.0
-8.9700 102.0
-8.7300 98.0
-8.4900 103.0
-8.2500 102.0
-8.0100 97.0
-7.7700 90.0
-7.5300 113.0
-7.2900 90.0
-7.0500 114.0
-6.8100 102.0
-6.5700 78.0
-6.3300 94.0
-6.0900 99.0
-5.8500 95.0
-5.6100 113.0
-5.3700 84.0
-5.1300 130.0
-4.8900 111.0
-4.6500 97.0
-4.4100 123.0
-4.1700 77.0
-3.9300 103.0
-3.6900 112.0
-3.4500 92.0
-3.2100 97.0
-2.9700 98.0
-2.7300 90.0
-2.4900 91.0
-2.2500 91.0
-2.0100 99.0
-1.7700 96.0
-1.5300 75.0
-1.2900 104.0
-1.0500 87.0
-0.8100 76.0
-0.5700 65.0
-0.3300 92.0
-0.0900 93.0
0.1500 86.0
0.3900 87.0
0.6300 77.0
0.8700 88.0
1.1100 73.0
1.3500 69.0
1.5900 73.0
1.8300 77.0
2.0700 68.0
2.3100 66.0
2.5500 78.0
2.7900 66.0
3.0300 79.0
3.2700 73.0
3.5100 60.0
3.7500 76.0
3.9900 52.0
4.2300 66.0
4.4700 61.0
4.7100 57.0
4.9500 58.0
5.1900 66.0
5.4300 63.0
5.6700 72.0
5.9100 54.0
6.1500 55.0
6.3900 70.0
6.6300 60.0
6.8700 61.0
7.1100 66.0
7.3500 44.0
7.5900 60.0
7.8300 60.0
8.0700 47.0
8.3100 60.0
8.5500 59.0
8.7900 69.0
9.0300 61.0
9.2700 62.0
9.5100 58.0
9.7500 68.0
9.9900 65.0
10.2300 55.0
10.4700 56.0
10.7100 60.0
10.9500 56.0
11.1900 62.0
11.4300 55.0
11.6700 50.0
11.9100 56.0
12.1500 39.0
12.3900 56.0
12.6300 72.0
12.8700 62.0
13.1100 44.0
13.3500 57.0
13.5900 64.0
13.8300 46.0
14.0700 48.0
14.3100 67.0
14.5500 65.0
14.7900 56.0
15.0300 78.0
15.2700 72.0
15.5100 64.0
15.7500 50.0
15.9900 53.0
16.2300 50.0
16.4700 52.0
16.7100 56.0
16.9500 47.0
17.1900 56.0
17.4300 59.0
17.6700 59.0
17.9100 46.0
18.1500 49.0
18.3900 67.0
18.6300 52.0
18.8700 78.0
19.1100 54.0
19.3500 61.0
19.5900 57.0
19.8300 54.0
20.0700 63.0
20.3100 72.0
20.5500 70.0
20.7900 65.0
21.0300 53.0
21.2700 61.0
21.5100 71.0
21.7500 58.0
21.9900 57.0
22.2300 64.0
22.4700 82.0
22.7100 62.0
22.9500 65.0
23.1900 65.0
23.4300 59.0
23.6700 70.0
23.9100 78.0
24.1500 75.0
24.3900 67.0
24.6300 79.0
24.8700 71.0
25.1100 66.0
25.3500 77.0
25.5900 61.0
25.8300 60.0
26.0700 72.0
26.3100 78.0
26.5500 72.0
26.7900 74.0
27.0300 90.0
27.2700 63.0
27.5100 65.0
27.7500 68.0
27.9900 76.0
28.2300 60.0
28.4700 72.0
28.7100 89.0
28.9500 73.0
29.1900 73.0
29.4300 70.0
29.6700 84.0
29.9100 69.0
30.1500 69.0
30.3900 87.0
30.6300 79.0
30.8700 81.0
31.1100 79.0
31.3500 81.0
31.5900 88.0
31.8300 61.0
32.0700 82.0
32.3100 75.0
32.5500 92.0
32.7900 86.0
33.0300 92.0
33.2700 89.0
33.5100 89.0
33.7500 103.0
33.9900 86.0
34.2300 88.0
34.4700 96.0
34.7100 101.0
34.9500 100.0
35.1900 92.0
35.4300 87.0
35.6700 103.0
35.9100 92.0
36.1500 93.0
36.3900 99.0
36.6300 98.0
36.8700 123.0
37.1100 98.0
37.3500 90.0
37.5900 87.0
37.8300 88.0
38.0700 92.0
38.3100 97.0
38.5500 101.0
38.7900 101.0
39.0300 98.0
39.2700 103.0
39.5100 112.0
39.7500 104.0
39.9900 114.0
40.2300 91.0
40.4700 107.0
40.7100 102.0
40.9500 114.0
41.1900 104.0
41.4300 99.0
41.6700 109.0
41.9100 94.0
42.1500 94.0
42.3900 113.0
42.6300 114.0
42.8700 96.0
43.1100 109.0
43.3500 104.0
43.5900 78.0
43.8300 107.0
44.0700 86.0
44.3100 116.0
44.5500 122.0
44.7900 119.0
45.0300 101.0
45.2700 101.0
45.5100 117.0
45.7500 114.0
45.9900 93.0
46.2300 104.0
46.4700 135.0
46.7100 94.0
46.9500 104.0
47.1900 110.0
47.4300 114.0
47.6700 86.0
47.9100 91.0
48.1500 111.0
48.3900 105.0
48.6300 101.0
48.8700 122.0
49.1100 116.0
49.3500 100.0
49.5900 119.0
49.8300 109.0
50.0700 117.0
50.3100 102.0
50.5500 106.0
50.7900 123.0
51.0300 106.0
51.2700 87.0
51.5100 115.0
51.7500 118.0
51.9900 121.0
52.2300 110.0
52.4700 137.0
52.7100 74.0
52.9500 113.0
53.1900 125.0
53.4300 107.0
53.6700 101.0
53.9100 107.0
54.1500 109.0
54.3900 102.0
54.6300 116.0
54.8700 99.0
55.1100 107.0
55.3500 106.0
55.5900 112.0
55.8300 114.0
56.0700 107.0
56.3100 113.0
56.5500 85.0
56.7900 101.0
57.0300 111.0
57.2700 103.0
57.5100 104.0
57.7500 105.0
57.9900 107.0
58.2300 122.0
58.4700 110.0
58.7100 106.0
58.9500 94.0
59.1900 105.0
59.4300 111.0
59.6700 113.0
59.9100 102.0
60.1500 103.0
60.3900 99.0
60.6300 110.0
60.8700 114.0
61.1100 98.0
61.3500 106.0
61.5900 110.0
61.8300 126.0
62.0700 107.0
62.3100 100.0
62.5500 98.0
62.7900 105.0
63.0300 97.0
63.2700 112.0
63.5100 108.0
63.7500 106.0
63.9900 120.0
64.2300 114.0
64.4700 112.0
64.7100 115.0
64.9500 92.0
65.1900 116.0
65.4300 110.0
65.6700 128.0
65.9100 121.0
66.1500 97.0
66.3900 102.0
66.6300 105.0
66.8700 116.0
67.1100 96.0
67.3500 117.0
67.5900 80.0
67.8300 90.0
68.0700 102.0
68.3100 94.0
68.5500 88.0
68.7900 90.0
69.0300 93.0
69.2700 111.0
69.5100 109.0
69.7500 107.0
69.9900 105.0
70.2300 93.0
70.4700 100.0
70.7100 106.0
70.9500 117.0
71.1900 82.0
71.4300 96.0
71.6700 103.0
71.9100 90.0
72.1500 116.0
72.3900 97.0
72.6300 101.0
72.8700 108.0
73.1100 92.0
73.3500 87.0
73.5900 113.0
73.8300 99.0
74.0700 90.0
74.3100 88.0
74.5500 95.0
74.7900 114.0
75.0300 98.0
75.2700 94.0
75.5100 111.0
75.7500 106.0
75.9900 105.0
76.2300 99.0
76.4700 120.0
76.7100 89.0
76.9500 102.0
77.1900 106.0
77.4300 82.0
77.6700 93.0
77.9100 99.0
78.1500 106.0
78.3900 88.0
78.6300 93.0
78.8700 108.0
79.1100 82.0
79.3500 107.0
79.5900 110.0
79.8300 90.0
80.0700 88.0
80.3100 104.0
80.5500 104.0
80.7900 111.0
81.0300 99.0
81.2700 108.0
81.5100 87.0
81.7500 94.0
81.9900 111.0
82.2300 114.0
82.4700 122.0
82.7100 88.0
82.9500 101.0
83.1900 90.0
83.4300 101.0
83.6700 116.0
83.9100 93.0
84.1500 99.0
84.3900 93.0
84.6300 90.0
84.8700 104.0
85.1100 103.0
85.3500 89.0
85.5900 109.0
85.8300 109.0
86.0700 97.0
86.3100 107.0
86.5500 92.0
86.7900 114.0
87.0300 93.0
87.2700 84.0
87.5100 95.0
87.7500 95.0
87.9900 91.0
88.2300 95.0
88.4700 81.0
88.7100 98.0
88.9500 110.0
89.1900 83.0
89.4300 112.0
89.6700 96.0
89.9100 86.0
90.1500 119.0
90.3900 95.0
90.6300 88.0
90.8700 96.0
91.1100 87.0
91.3500 99.0
91.5900 76.0
91.8300 104.0
92.0700 85.0
92.3100 110.0
92.5500 76.0
92.7900 79.0
93.0300 80.0
93.2700 87.0
93.5100 99.0
93.7500 110.0
93.9900 99.0
94.2300 98.0
94.4700 108.0
94.7100 72.0
94.9500 84.0
95.1900 98.0
95.4300 120.0
95.6700 113.0
95.9100 99.0
96.1500 101.0
96.3900 75.0
96.6300 107.0
96.8700 94.0
97.1100 113.0
97.3500 88.0
97.5900 83.0
97.8300 105.0
98.0700 95.0
98.3100 103.0
98.5500 89.0
98.7900 94.0
99.0300 94.0
99.2700 102.0
99.5100 105.0
99.7500 115.0
99.9900 96.0
100.2300 127.0
100.4700 102.0
100.7100 101.0
100.9500 109.0
101.1900 88.0
101.4300 97.0
101.6700 96.0
101.9100 97.0
102.1500 125.0
102.3900 93.0
102.6300 89.0
102.8700 106.0
103.1100 117.0
103.3500 112.0
103.5900 106.0
103.8300 106.0
104.0700 101.0
104.3100 106.0
104.5500 107.0
104.7900 120.0
105.0300 93.0
105.2700 108.0
105.5100 91.0
105.7500 107.0
105.9900 104.0
106.2300 120.0
106.4700 93.0
106.7100 94.0
106.9500 103.0
107.1900 99.0
107.4300 112.0
107.6700 102.0
107.9100 109.0
108.1500 106.0
108.3900 107.0
108.6300 104.0
108.8700 113.0
109.1100 111.0
109.3500 102.0
109.5900 107.0
109.8300 102.0
110.0700 94.0
110.3100 104.0
110.5500 108.0
110.7900 107.0
111.0300 96.0
111.2700 111.0
111.5100 102.0
111.7500 109.0
111.9900 86.0
112.2300 128.0
112.4700 127.0
112.7100 85.0
112.9500 87.0
113.1900 100.0
113.4300 94.0
113.6700 103.0
113.9100 109.0
114.1500 118.0
114.3900 118.0
114.6300 120.0
114.8700 102.0
115.1100 124.0
115.3500 86.0
115.5900 117.0
115.8300 110.0
116.0700 121.0
116.3100 114.0
116.5500 119.0
116.7900 122.0
117.0300 98.0
117.2700 113.0
117.5100 110.0
117.7500 117.0
117.9900 128.0
118.2300 109.0
118.4700 102.0
118.7100 128.0
118.9500 102.0
119.1900 109.0
119.4300 102.0
119.6700 100.0
119.9100 96.0
120.1500 97.0
120.3900 97.0
120.6300 88.0
120.8700 105.0
121.1100 118.0
121.3500 109.0
121.5900 106.0
121.8300 105.0
122.0700 109.0
122.3100 115.0
122.5500 129.0
122.7900 101.0
123.0300 123.0
123.2700 123.0
123.5100 108.0
123.7500 108.0
123.9900 124.0
124.2300 127.0
124.4700 125.0
124.7100 100.0
124.9500 105.0
125.1900 131.0
125.4300 111.0
125.6700 136.0
125.9100 134.0
126.1500 110.0
126.3900 110.0
126.6300 125.0
126.8700 116.0
127.1100 112.0
127.3500 130.0
127.5900 122.0
127.8300 129.0
128.0700 124.0
128.3100 111.0
128.5500 121.0
128.7900 101.0
129.0300 109.0
129.2700 105.0
129.5100 113.0
129.7500 107.0
129.9900 130.0
130.2300 122.0
130.4700 113.0
130.7100 127.0
130.9500 122.0
131.1900 135.0
131.4300 105.0
131.6700 115.0
131.9100 119.0
132.1500 116.0
132.3900 121.0
132.6300 125.0
132.8700 121.0
133.1100 118.0
133.3500 98.0
133.5900 110.0
133.8300 116.0
134.0700 118.0
134.3100 125.0
134.5500 113.0
134.7900 107.0
135.0300 121.0
135.2700 123.0
135.5100 119.0
135.7500 120.0
135.9900 107.0
136.2300 107.0
136.4700 106.0
136.7100 101.0
136.9500 103.0
137.1900 92.0
137.4300 99.0
137.6700 112.0
137.9100 110.0
138.1500 115.0
138.3900 122.0
138.6300 129.0
138.8700 109.0
139.1100 106.0
139.3500 116.0
139.5900 125.0
139.8300 111.0
140.0700 134.0
140.3100 106.0
140.5500 117.0
140.7900 130.0
141.0300 116.0
141.2700 122.0
141.5100 110.0
141.7500 139.0
141.9900 120.0
142.2300 106.0
142.4700 101.0
142.7100 120.0
142.9500 118.0
143.1900 109.0
143.4300 114.0
143.6700 109.0
143.9100 135.0
144.1500 116.0
144.3900 127.0
144.6300 122.0
144.8700 114.0
145.1100 111.0
145.3500 118.0
145.5900 119.0
145.8300 138.0
146.0700 130.0
146.3100 126.0
146.5500 119.0
146.7900 119.0
147.0300 135.0
147.2700 121.0
147.5100 130.0
147.7500 133.0
147.9900 122.0
148.2300 118.0
148.4700 126.0
148.7100 112.0
148.9500 121.0
149.1900 100.0
149.4300 123.0
149.6700 115.0
149.9100 114.0
150.1500 107.0
150.3900 116.0
150.6300 117.0
150.8700 98.0
151.1100 117.0
151.3500 114.0
151.5900 116.0
151.8300 100.0
152.0700 119.0
152.3100 98.0
152.5500 109.0
152.7900 113.0
153.0300 115.0
153.2700 99.0
153.5100 103.0
153.7500 108.0
153.9900 117.0
154.2300 99.0
154.4700 108.0
154.7100 102.0
154.9500 114.0
155.1900 132.0
155.4300 110.0
155.6700 122.0
155.9100 116.0
156.1500 106.0
156.3900 123.0
156.6300 132.0
156.8700 93.0
157.1100 111.0
157.3500 115.0
157.5900 129.0
157.8300 101.0
158.0700 94.0
158.3100 141.0
158.5500 117.0
158.7900 109.0
159.0300 122.0
159.2700 101.0
159.5100 112.0
159.7500 118.0
159.9900 110.0
160.2300 113.0
160.4700 106.0
160.7100 104.0
160.9500 136.0
161.1900 114.0
161.4300 81.0
161.6700 117.0
161.9100 109.0
162.1500 101.0
162.3900 104.0
162.6300 104.0
162.8700 90.0
163.1100 102.0
163.3500 121.0
163.5900 105.0
163.8300 127.0
164.0700 107.0
164.3100 116.0
164.5500 102.0
164.7900 95.0
165.0300 99.0
165.2700 101.0
165.5100 112.0
165.7500 106.0
165.9900 114.0
166.2300 115.0
166.4700 88.0
166.7100 129.0
166.9500 95.0
167.1900 96.0
167.4300 110.0
167.6700 101.0
167.9100 108.0
168.1500 104.0
168.3900 100.0
168.6300 104.0
168.8700 123.0
169.1100 106.0
169.3500 98.0
169.5900 90.0
169.8300 105.0
170.0700 93.0
170.3100 93.0
170.5500 112.0
170.7900 102.0
171.0300 118.0
171.2700 100.0
171.5100 106.0
171.7500 110.0
171.9900 97.0
172.2300 120.0
172.4700 113.0
172.7100 125.0
172.9500 94.0
173.1900 112.0
173.4300 98.0
173.6700 85.0
173.9100 98.0
174.1500 103.0
174.3900 89.0
174.6300 80.0
174.8700 96.0
175.1100 103.0
175.3500 91.0
175.5900 99.0
175.8300 90.0
176.0700 116.0
176.3100 113.0
176.5500 96.0
176.7900 99.0
177.0300 98.0
177.2700 86.0
177.5100 112.0
177.7500 85.0
177.9900 77.0
178.2300 105.0
178.4700 94.0
178.7100 64.0
178.9500 88.0
179.1900 101.0
179.4300 89.0
179.6700 80.0
179.9100 92.0
180.1500 88.0
180.3900 82.0
180.6300 101.0
180.8700 92.0
181.1100 81.0
181.3500 71.0
181.5900 84.0
181.8300 94.0
182.0700 82.0
182.3100 96.0
182.5500 82.0
182.7900 80.0
183.0300 85.0
183.2700 85.0
183.5100 92.0
183.7500 81.0
183.9900 70.0
184.2300 77.0
184.4700 77.0
184.7100 72.0
184.9500 72.0
185.1900 65.0
185.4300 64.0
185.6700 82.0
185.9100 71.0
186.1500 76.0
186.3900 70.0
186.6300 57.0
186.8700 60.0
187.1100 48.0
187.3500 77.0
187.5900 78.0
187.8300 69.0
188.0700 61.0
188.3100 62.0
188.5500 63.0
188.7900 64.0
189.0300 59.0
189.2700 69.0
189.5100 51.0
189.7500 71.0
189.9900 52.0
190.2300 63.0
190.4700 58.0
190.7100 56.0
190.9500 64.0
191.1900 57.0
191.4300 53.0
191.6700 70.0
191.9100 60.0
192.1500 60.0
192.3900 55.0
192.6300 55.0
192.8700 48.0
193.1100 55.0
193.3500 61.0
193.5900 60.0
193.8300 64.0
194.0700 58.0
194.3100 51.0
194.5500 62.0
194.7900 52.0
195.0300 55.0
195.2700 40.0
195.5100 53.0
195.7500 61.0
195.9900 52.0
196.2300 60.0
196.4700 63.0
196.7100 67.0
196.9500 53.0
197.1900 43.0
197.4300 66.0
197.6700 47.0
197.9100 61.0
198.1500 58.0
198.3900 71.0
198.6300 60.0
198.8700 56.0
199.1100 61.0
199.3500 62.0
199.5900 65.0
199.8300 67.0
200.0700 45.0
200.3100 57.0
200.5500 50.0
200.7900 51.0
201.0300 64.0
201.2700 75.0
201.5100 69.0
201.7500 59.0
201.9900 67.0
202.2300 63.0
202.4700 63.0
202.7100 67.0
202.9500 72.0
203.1900 64.0
203.4300 70.0
203.6700 59.0
203.9100 68.0
204.1500 76.0
204.3900 61.0
204.6300 81.0
204.8700 69.0
205.1100 71.0
205.3500 74.0
205.5900 77.0
205.8300 64.0
206.0700 81.0
206.3100 79.0
206.5500 69.0
206.7900 87.0
207.0300 79.0
207.2700 59.0
207.5100 75.0
207.7500 87.0
207.9900 84.0
208.2300 85.0
208.4700 73.0
208.7100 75.0
208.9500 75.0
209.1900 74.0
209.4300 75.0
209.6700 73.0
209.9100 82.0
210.1500 82.0
210.3900 77.0
210.6300 77.0
210.8700 78.0
211.1100 79.0
211.3500 82.0
211.5900 90.0
211.8300 79.0
212.0700 84.0
212.3100 97.0
212.5500 98.0
212.7900 89.0
213.0300 96.0
213.2700 92.0
213.5100 117.0
213.7500 109.0
213.9900 131.0
214.2300 127.0
214.4700 138.0
214.7100 145.0
214.9500 158.0
215.1900 176.0
215.4300 245.0
215.6700 259.0
215.9100 352.0
216.0700 420.0