File: XRD_data/W6725/XRD_Phi/W6725_Al2O3_phi_360deg_25min_3mm_active_4.xy
-216.135 67.000
-215.885 65.000
-215.635 69.000
-215.385 84.000
-215.135 70.000
-214.885 56.000
-214.635 62.000
-214.385 64.000
-214.135 74.000
-213.885 60.000
-213.635 80.000
-213.385 71.000
-213.135 70.000
-212.885 55.000
-212.635 60.000
-212.385 72.000
-212.135 85.000
-211.885 60.000
-211.635 72.000
-211.385 63.000
-211.135 57.000
-210.885 67.000
-210.635 64.000
-210.385 75.000
-210.135 64.000
-209.885 63.000
-209.635 68.000
-209.385 81.000
-209.135 67.000
-208.885 59.000
-208.635 72.000
-208.385 61.000
-208.135 53.000
-207.885 81.000
-207.635 63.000
-207.385 58.000
-207.135 73.000
-206.885 51.000
-206.635 62.000
-206.385 74.000
-206.135 57.000
-205.885 58.000
-205.635 62.000
-205.385 63.000
-205.135 68.000
-204.885 65.000
-204.635 61.000
-204.385 69.000
-204.135 57.000
-203.885 68.000
-203.635 57.000
-203.385 86.000
-203.135 66.000
-202.885 67.000
-202.635 55.000
-202.385 78.000
-202.135 66.000
-201.885 72.000
-201.635 62.000
-201.385 73.000
-201.135 71.000
-200.885 66.000
-200.635 72.000
-200.385 59.000
-200.135 60.000
-199.885 52.000
-199.635 59.000
-199.385 63.000
-199.135 66.000
-198.885 61.000
-198.635 63.000
-198.385 59.000
-198.135 65.000
-197.885 60.000
-197.635 67.000
-197.385 58.000
-197.135 71.000
-196.885 51.000
-196.635 73.000
-196.385 56.000
-196.135 67.000
-195.885 62.000
-195.635 58.000
-195.385 60.000
-195.135 65.000
-194.885 76.000
-194.635 45.000
-194.385 79.000
-194.135 61.000
-193.885 78.000
-193.635 47.000
-193.385 60.000
-193.135 75.000
-192.885 53.000
-192.635 60.000
-192.385 66.000
-192.135 71.000
-191.885 61.000
-191.635 61.000
-191.385 63.000
-191.135 74.000
-190.885 59.000
-190.635 66.000
-190.385 67.000
-190.135 62.000
-189.885 63.000
-189.635 62.000
-189.385 70.000
-189.135 65.000
-188.885 59.000
-188.635 54.000
-188.385 69.000
-188.135 72.000
-187.885 59.000
-187.635 61.000
-187.385 69.000
-187.135 59.000
-186.885 57.000
-186.635 58.000
-186.385 63.000
-186.135 64.000
-185.885 65.000
-185.635 62.000
-185.385 67.000
-185.135 65.000
-184.885 55.000
-184.635 62.000
-184.385 61.000
-184.135 54.000
-183.885 59.000
-183.635 61.000
-183.385 50.000
-183.135 45.000
-182.885 55.000
-182.635 57.000
-182.385 53.000
-182.135 63.000
-181.885 58.000
-181.635 50.000
-181.385 59.000
-181.135 57.000
-180.885 48.000
-180.635 50.000
-180.385 51.000
-180.135 43.000
-179.885 51.000
-179.635 51.000
-179.385 54.000
-179.135 63.000
-178.885 52.000
-178.635 44.000
-178.385 44.000
-178.135 49.000
-177.885 45.000
-177.635 55.000
-177.385 54.000
-177.135 45.000
-176.885 51.000
-176.635 61.000
-176.385 44.000
-176.135 59.000
-175.885 39.000
-175.635 51.000
-175.385 40.000
-175.135 52.000
-174.885 38.000
-174.635 33.000
-174.385 44.000
-174.135 48.000
-173.885 41.000
-173.635 39.000
-173.385 35.000
-173.135 45.000
-172.885 39.000
-172.635 41.000
-172.385 36.000
-172.135 47.000
-171.885 39.000
-171.635 31.000
-171.385 46.000
-171.135 37.000
-170.885 37.000
-170.635 34.000
-170.385 45.000
-170.135 31.000
-169.885 37.000
-169.635 28.000
-169.385 34.000
-169.135 41.000
-168.885 34.000
-168.635 35.000
-168.385 37.000
-168.135 28.000
-167.885 30.000
-167.635 31.000
-167.385 39.000
-167.135 31.000
-166.885 39.000
-166.635 35.000
-166.385 33.000
-166.135 32.000
-165.885 36.000
-165.635 32.000
-165.385 25.000
-165.135 39.000
-164.885 19.000
-164.635 41.000
-164.385 27.000
-164.135 42.000
-163.885 31.000
-163.635 41.000
-163.385 40.000
-163.135 33.000
-162.885 28.000
-162.635 37.000
-162.385 26.000
-162.135 25.000
-161.885 25.000
-161.635 23.000
-161.385 32.000
-161.135 27.000
-160.885 30.000
-160.635 31.000
-160.385 40.000
-160.135 38.000
-159.885 35.000
-159.635 30.000
-159.385 36.000
-159.135 27.000
-158.885 35.000
-158.635 32.000
-158.385 27.000
-158.135 41.000
-157.885 30.000
-157.635 40.000
-157.385 48.000
-157.135 38.000
-156.885 40.000
-156.635 35.000
-156.385 42.000
-156.135 22.000
-155.885 41.000
-155.635 45.000
-155.385 46.000
-155.135 45.000
-154.885 47.000
-154.635 42.000
-154.385 47.000
-154.135 44.000
-153.885 65.000
-153.635 47.000
-153.385 38.000
-153.135 41.000
-152.885 59.000
-152.635 36.000
-152.385 40.000
-152.135 50.000
-151.885 38.000
-151.635 45.000
-151.385 35.000
-151.135 48.000
-150.885 47.000
-150.635 43.000
-150.385 47.000
-150.135 47.000
-149.885 39.000
-149.635 47.000
-149.385 47.000
-149.135 50.000
-148.885 45.000
-148.635 43.000
-148.385 34.000
-148.135 41.000
-147.885 53.000
-147.635 45.000
-147.385 49.000
-147.135 56.000
-146.885 54.000
-146.635 56.000
-146.385 64.000
-146.135 56.000
-145.885 54.000
-145.635 69.000
-145.385 59.000
-145.135 62.000
-144.885 66.000
-144.635 86.000
-144.385 70.000
-144.135 59.000
-143.885 59.000
-143.635 89.000
-143.385 390.000
-143.135 288.000
-142.885 102.000
-142.635 87.000
-142.385 82.000
-142.135 73.000
-141.885 67.000
-141.635 72.000
-141.385 79.000
-141.135 67.000
-140.885 71.000
-140.635 86.000
-140.385 68.000
-140.135 73.000
-139.885 78.000
-139.635 84.000
-139.385 86.000
-139.135 70.000
-138.885 76.000
-138.635 70.000
-138.385 60.000
-138.135 71.000
-137.885 57.000
-137.635 84.000
-137.385 77.000
-137.135 59.000
-136.885 69.000
-136.635 62.000
-136.385 64.000
-136.135 70.000
-135.885 76.000
-135.635 57.000
-135.385 55.000
-135.135 55.000
-134.885 63.000
-134.635 70.000
-134.385 77.000
-134.135 71.000
-133.885 60.000
-133.635 64.000
-133.385 66.000
-133.135 69.000
-132.885 73.000
-132.635 55.000
-132.385 63.000
-132.135 61.000
-131.885 76.000
-131.635 64.000
-131.385 64.000
-131.135 65.000
-130.885 72.000
-130.635 64.000
-130.385 76.000
-130.135 53.000
-129.885 52.000
-129.635 53.000
-129.385 59.000
-129.135 58.000
-128.885 75.000
-128.635 73.000
-128.385 77.000
-128.135 75.000
-127.885 65.000
-127.635 61.000
-127.385 67.000
-127.135 60.000
-126.885 68.000
-126.635 68.000
-126.385 67.000
-126.135 54.000
-125.885 66.000
-125.635 64.000
-125.385 63.000
-125.135 63.000
-124.885 55.000
-124.635 47.000
-124.385 68.000
-124.135 55.000
-123.885 65.000
-123.635 69.000
-123.385 75.000
-123.135 56.000
-122.885 64.000
-122.635 52.000
-122.385 52.000
-122.135 71.000
-121.885 65.000
-121.635 62.000
-121.385 73.000
-121.135 56.000
-120.885 66.000
-120.635 57.000
-120.385 63.000
-120.135 54.000
-119.885 64.000
-119.635 59.000
-119.385 66.000
-119.135 54.000
-118.885 61.000
-118.635 73.000
-118.385 60.000
-118.135 48.000
-117.885 50.000
-117.635 67.000
-117.385 64.000
-117.135 71.000
-116.885 55.000
-116.635 52.000
-116.385 66.000
-116.135 59.000
-115.885 60.000
-115.635 61.000
-115.385 53.000
-115.135 67.000
-114.885 59.000
-114.635 67.000
-114.385 60.000
-114.135 61.000
-113.885 55.000
-113.635 63.000
-113.385 45.000
-113.135 59.000
-112.885 45.000
-112.635 61.000
-112.385 75.000
-112.135 52.000
-111.885 49.000
-111.635 77.000
-111.385 54.000
-111.135 69.000
-110.885 49.000
-110.635 56.000
-110.385 55.000
-110.135 67.000
-109.885 50.000
-109.635 48.000
-109.385 69.000
-109.135 57.000
-108.885 71.000
-108.635 53.000
-108.385 53.000
-108.135 42.000
-107.885 63.000
-107.635 65.000
-107.385 58.000
-107.135 59.000
-106.885 71.000
-106.635 63.000
-106.385 54.000
-106.135 64.000
-105.885 56.000
-105.635 70.000
-105.385 67.000
-105.135 44.000
-104.885 47.000
-104.635 51.000
-104.385 73.000
-104.135 44.000
-103.885 50.000
-103.635 47.000
-103.385 52.000
-103.135 48.000
-102.885 59.000
-102.635 42.000
-102.385 47.000
-102.135 53.000
-101.885 63.000
-101.635 60.000
-101.385 57.000
-101.135 53.000
-100.885 54.000
-100.635 56.000
-100.385 52.000
-100.135 55.000
-99.88500 54.000
-99.63500 63.000
-99.38500 63.000
-99.13500 53.000
-98.88500 60.000
-98.63500 63.000
-98.38500 57.000
-98.13500 49.000
-97.88500 50.000
-97.63500 56.000
-97.38500 58.000
-97.13500 47.000
-96.88500 48.000
-96.63500 53.000
-96.38500 55.000
-96.13500 49.000
-95.88500 44.000
-95.63500 63.000
-95.38500 57.000
-95.13500 43.000
-94.88500 48.000
-94.63500 53.000
-94.38500 42.000
-94.13500 46.000
-93.88500 50.000
-93.63500 56.000
-93.38500 47.000
-93.13500 56.000
-92.88500 42.000
-92.63500 50.000
-92.38500 65.000
-92.13500 47.000
-91.88500 53.000
-91.63500 53.000
-91.38500 57.000
-91.13500 65.000
-90.88500 53.000
-90.63500 51.000
-90.38500 49.000
-90.13500 58.000
-89.88500 55.000
-89.63500 57.000
-89.38500 62.000
-89.13500 57.000
-88.88500 67.000
-88.63500 69.000
-88.38500 43.000
-88.13500 49.000
-87.88500 48.000
-87.63500 55.000
-87.38500 50.000
-87.13500 51.000
-86.88500 52.000
-86.63500 40.000
-86.38500 37.000
-86.13500 49.000
-85.88500 59.000
-85.63500 47.000
-85.38500 53.000
-85.13500 56.000
-84.88500 41.000
-84.63500 61.000
-84.38500 63.000
-84.13500 57.000
-83.88500 48.000
-83.63500 40.000
-83.38500 64.000
-83.13500 50.000
-82.88500 58.000
-82.63500 55.000
-82.38500 60.000
-82.13500 60.000
-81.88500 65.000
-81.63500 44.000
-81.38500 35.000
-81.13500 50.000
-80.88500 60.000
-80.63500 58.000
-80.38500 55.000
-80.13500 54.000
-79.88500 59.000
-79.63500 60.000
-79.38500 61.000
-79.13500 58.000
-78.88500 60.000
-78.63500 71.000
-78.38500 46.000
-78.13500 69.000
-77.88500 55.000
-77.63500 62.000
-77.38500 51.000
-77.13500 69.000
-76.88500 58.000
-76.63500 61.000
-76.38500 59.000
-76.13500 49.000
-75.88500 65.000
-75.63500 44.000
-75.38500 57.000
-75.13500 69.000
-74.88500 60.000
-74.63500 71.000
-74.38500 55.000
-74.13500 64.000
-73.88500 77.000
-73.63500 63.000
-73.38500 68.000
-73.13500 70.000
-72.88500 51.000
-72.63500 83.000
-72.38500 60.000
-72.13500 81.000
-71.88500 50.000
-71.63500 70.000
-71.38500 69.000
-71.13500 55.000
-70.88500 67.000
-70.63500 59.000
-70.38500 66.000
-70.13500 71.000
-69.88500 49.000
-69.63500 51.000
-69.38500 57.000
-69.13500 60.000
-68.88500 54.000
-68.63500 63.000
-68.38500 53.000
-68.13500 55.000
-67.88500 60.000
-67.63500 62.000
-67.38500 64.000
-67.13500 78.000
-66.88500 73.000
-66.63500 67.000
-66.38500 54.000
-66.13500 50.000
-65.88500 60.000
-65.63500 69.000
-65.38500 66.000
-65.13500 59.000
-64.88500 56.000
-64.63500 67.000
-64.38500 72.000
-64.13500 72.000
-63.88500 81.000
-63.63500 88.000
-63.38500 75.000
-63.13500 69.000
-62.88500 61.000
-62.63500 60.000
-62.38500 70.000
-62.13500 51.000
-61.88500 74.000
-61.63500 59.000
-61.38500 73.000
-61.13500 54.000
-60.88500 67.000
-60.63500 65.000
-60.38500 63.000
-60.13500 76.000
-59.88500 75.000
-59.63500 66.000
-59.38500 80.000
-59.13500 84.000
-58.88500 68.000
-58.63500 70.000
-58.38500 68.000
-58.13500 43.000
-57.88500 65.000
-57.63500 78.000
-57.38500 71.000
-57.13500 60.000
-56.88500 64.000
-56.63500 54.000
-56.38500 71.000
-56.13500 52.000
-55.88500 62.000
-55.63500 67.000
-55.38500 56.000
-55.13500 57.000
-54.88500 70.000
-54.63500 67.000
-54.38500 74.000
-54.13500 73.000
-53.88500 57.000
-53.63500 60.000
-53.38500 72.000
-53.13500 68.000
-52.88500 72.000
-52.63500 69.000
-52.38500 67.000
-52.13500 62.000
-51.88500 67.000
-51.63500 76.000
-51.38500 64.000
-51.13500 77.000
-50.88500 61.000
-50.63500 58.000
-50.38500 75.000
-50.13500 70.000
-49.88500 59.000
-49.63500 78.000
-49.38500 55.000
-49.13500 72.000
-48.88500 74.000
-48.63500 70.000
-48.38500 70.000
-48.13500 78.000
-47.88500 67.000
-47.63500 64.000
-47.38500 60.000
-47.13500 75.000
-46.88500 67.000
-46.63500 81.000
-46.38500 76.000
-46.13500 66.000
-45.88500 64.000
-45.63500 76.000
-45.38500 74.000
-45.13500 69.000
-44.88500 68.000
-44.63500 64.000
-44.38500 69.000
-44.13500 65.000
-43.88500 71.000
-43.63500 65.000
-43.38500 63.000
-43.13500 74.000
-42.88500 68.000
-42.63500 66.000
-42.38500 65.000
-42.13500 74.000
-41.88500 63.000
-41.63500 54.000
-41.38500 69.000
-41.13500 64.000
-40.88500 74.000
-40.63500 55.000
-40.38500 86.000
-40.13500 71.000
-39.88500 87.000
-39.63500 86.000
-39.38500 78.000
-39.13500 85.000
-38.88500 80.000
-38.63500 70.000
-38.38500 74.000
-38.13500 91.000
-37.88500 93.000
-37.63500 90.000
-37.38500 98.000
-37.13500 97.000
-36.88500 102.000
-36.63500 101.000
-36.38500 105.000
-36.13500 147.000
-35.88500 929.000
-35.63500 238.000
-35.38500 110.000
-35.13500 122.000
-34.88500 92.000
-34.63500 84.000
-34.38500 89.000
-34.13500 79.000
-33.88500 81.000
-33.63500 74.000
-33.38500 73.000
-33.13500 82.000
-32.88500 71.000
-32.63500 70.000
-32.38500 67.000
-32.13500 63.000
-31.88500 67.000
-31.63500 61.000
-31.38500 58.000
-31.13500 87.000
-30.88500 88.000
-30.63500 71.000
-30.38500 86.000
-30.13500 72.000
-29.88500 52.000
-29.63500 74.000
-29.38500 54.000
-29.13500 56.000
-28.88500 68.000
-28.63500 70.000
-28.38500 62.000
-28.13500 56.000
-27.88500 48.000
-27.63500 59.000
-27.38500 74.000
-27.13500 57.000
-26.88500 78.000
-26.63500 72.000
-26.38500 78.000
-26.13500 73.000
-25.88500 78.000
-25.63500 70.000
-25.38500 61.000
-25.13500 53.000
-24.88500 60.000
-24.63500 68.000
-24.38500 71.000
-24.13500 69.000
-23.88500 78.000
-23.63500 62.000
-23.38500 54.000
-23.13500 60.000
-22.88500 61.000
-22.63500 71.000
-22.38500 48.000
-22.13500 57.000
-21.88500 65.000
-21.63500 46.000
-21.38500 66.000
-21.13500 55.000
-20.88500 69.000
-20.63500 57.000
-20.38500 70.000
-20.13500 57.000
-19.88500 59.000
-19.63500 53.000
-19.38500 65.000
-19.13500 50.000
-18.88500 80.000
-18.63500 74.000
-18.38500 73.000
-18.13500 65.000
-17.88500 71.000
-17.63500 67.000
-17.38500 72.000
-17.13500 66.000
-16.88500 79.000
-16.63500 62.000
-16.38500 68.000
-16.13500 50.000
-15.88500 53.000
-15.63500 64.000
-15.38500 51.000
-15.13500 57.000
-14.88500 52.000
-14.63500 71.000
-14.38500 64.000
-14.13500 83.000
-13.88500 60.000
-13.63500 59.000
-13.38500 71.000
-13.13500 59.000
-12.88500 60.000
-12.63500 43.000
-12.38500 68.000
-12.13500 61.000
-11.88500 66.000
-11.63500 71.000
-11.38500 57.000
-11.13500 72.000
-10.88500 65.000
-10.63500 51.000
-10.38500 79.000
-10.13500 57.000
-9.88500 72.000
-9.63500 75.000
-9.38500 56.000
-9.13500 49.000
-8.88500 70.000
-8.63500 65.000
-8.38500 74.000
-8.13500 74.000
-7.88500 50.000
-7.63500 51.000
-7.38500 62.000
-7.13500 49.000
-6.88500 61.000
-6.63500 66.000
-6.38500 59.000
-6.13500 57.000
-5.88500 65.000
-5.63500 76.000
-5.38500 60.000
-5.13500 48.000
-4.88500 54.000
-4.63500 75.000
-4.38500 51.000
-4.13500 49.000
-3.88500 72.000
-3.63500 57.000
-3.38500 58.000
-3.13500 57.000
-2.88500 52.000
-2.63500 49.000
-2.38500 61.000
-2.13500 51.000
-1.88500 74.000
-1.63500 60.000
-1.38500 59.000
-1.13500 71.000
-0.88500 50.000
-0.63500 51.000
-0.38500 39.000
-0.13500 54.000
0.11500 40.000
0.36500 52.000
0.61500 48.000
0.86500 49.000
1.11500 50.000
1.36500 43.000
1.61500 45.000
1.86500 40.000
2.11500 39.000
2.36500 42.000
2.61500 42.000
2.86500 41.000
3.11500 34.000
3.36500 32.000
3.61500 37.000
3.86500 52.000
4.11500 37.000
4.36500 30.000
4.61500 37.000
4.86500 31.000
5.11500 25.000
5.36500 40.000
5.61500 24.000
5.86500 31.000
6.11500 29.000
6.36500 40.000
6.61500 33.000
6.86500 31.000
7.11500 34.000
7.36500 41.000
7.61500 29.000
7.86500 40.000
8.11500 34.000
8.36500 26.000
8.61500 30.000
8.86500 47.000
9.11500 41.000
9.36500 35.000
9.61500 27.000
9.86500 28.000
10.11500 30.000
10.36500 26.000
10.61500 29.000
10.86500 38.000
11.11500 33.000
11.36500 37.000
11.61500 21.000
11.86500 33.000
12.11500 25.000
12.36500 31.000
12.61500 43.000
12.86500 35.000
13.11500 24.000
13.36500 27.000
13.61500 44.000
13.86500 23.000
14.11500 29.000
14.36500 39.000
14.61500 28.000
14.86500 21.000
15.11500 30.000
15.36500 27.000
15.61500 48.000
15.86500 29.000
16.11500 38.000
16.36500 35.000
16.61500 44.000
16.86500 35.000
17.11500 30.000
17.36500 43.000
17.61500 35.000
17.86500 24.000
18.11500 35.000
18.36500 24.000
18.61500 33.000
18.86500 25.000
19.11500 32.000
19.36500 36.000
19.61500 35.000
19.86500 31.000
20.11500 30.000
20.36500 46.000
20.61500 43.000
20.86500 39.000
21.11500 27.000
21.36500 37.000
21.61500 31.000
21.86500 42.000
22.11500 31.000
22.36500 38.000
22.61500 30.000
22.86500 39.000
23.11500 33.000
23.36500 34.000
23.61500 45.000
23.86500 35.000
24.11500 23.000
24.36500 40.000
24.61500 40.000
24.86500 36.000
25.11500 41.000
25.36500 36.000
25.61500 44.000
25.86500 45.000
26.11500 36.000
26.36500 43.000
26.61500 35.000
26.86500 34.000
27.11500 44.000
27.36500 27.000
27.61500 38.000
27.86500 43.000
28.11500 34.000
28.36500 50.000
28.61500 39.000
28.86500 39.000
29.11500 43.000
29.36500 46.000
29.61500 45.000
29.86500 40.000
30.11500 41.000
30.36500 51.000
30.61500 51.000
30.86500 35.000
31.11500 48.000
31.36500 39.000
31.61500 49.000
31.86500 46.000
32.11500 42.000
32.36500 44.000
32.61500 53.000
32.86500 49.000
33.11500 35.000
33.36500 46.000
33.61500 46.000
33.86500 56.000
34.11500 52.000
34.36500 57.000
34.61500 54.000
34.86500 60.000
35.11500 61.000
35.36500 50.000
35.61500 66.000
35.86500 61.000
36.11500 54.000
36.36500 51.000
36.61500 43.000
36.86500 61.000
37.11500 60.000
37.36500 57.000
37.61500 58.000
37.86500 69.000
38.11500 56.000
38.36500 45.000
38.61500 61.000
38.86500 56.000
39.11500 54.000
39.36500 59.000
39.61500 51.000
39.86500 56.000
40.11500 72.000
40.36500 54.000
40.61500 55.000
40.86500 50.000
41.11500 76.000
41.36500 53.000
41.61500 65.000
41.86500 59.000
42.11500 69.000
42.36500 59.000
42.61500 68.000
42.86500 54.000
43.11500 49.000
43.36500 59.000
43.61500 77.000
43.86500 63.000
44.11500 58.000
44.36500 65.000
44.61500 62.000
44.86500 71.000
45.11500 44.000
45.36500 59.000
45.61500 49.000
45.86500 68.000
46.11500 51.000
46.36500 63.000
46.61500 73.000
46.86500 81.000
47.11500 73.000
47.36500 76.000
47.61500 58.000
47.86500 58.000
48.11500 53.000
48.36500 60.000
48.61500 61.000
48.86500 69.000
49.11500 67.000
49.36500 54.000
49.61500 73.000
49.86500 51.000
50.11500 68.000
50.36500 59.000
50.61500 72.000
50.86500 59.000
51.11500 73.000
51.36500 54.000
51.61500 61.000
51.86500 63.000
52.11500 62.000
52.36500 63.000
52.61500 57.000
52.86500 62.000
53.11500 64.000
53.36500 56.000
53.61500 46.000
53.86500 64.000
54.11500 66.000
54.36500 67.000
54.61500 81.000
54.86500 69.000
55.11500 65.000
55.36500 49.000
55.61500 57.000
55.86500 64.000
56.11500 51.000
56.36500 54.000
56.61500 62.000
56.86500 59.000
57.11500 64.000
57.36500 56.000
57.61500 56.000
57.86500 66.000
58.11500 67.000
58.36500 74.000
58.61500 60.000
58.86500 51.000
59.11500 53.000
59.36500 60.000
59.61500 51.000
59.86500 47.000
60.11500 51.000
60.36500 63.000
60.61500 71.000
60.86500 67.000
61.11500 74.000
61.36500 57.000
61.61500 57.000
61.86500 68.000
62.11500 57.000
62.36500 71.000
62.61500 64.000
62.86500 64.000
63.11500 47.000
63.36500 74.000
63.61500 61.000
63.86500 65.000
64.11500 63.000
64.36500 45.000
64.61500 51.000
64.86500 57.000
65.11500 59.000
65.36500 67.000
65.61500 56.000
65.86500 57.000
66.11500 71.000
66.36500 59.000
66.61500 54.000
66.86500 65.000
67.11500 73.000
67.36500 67.000
67.61500 56.000
67.86500 59.000
68.11500 62.000
68.36500 63.000
68.61500 45.000
68.86500 53.000
69.11500 63.000
69.36500 51.000
69.61500 61.000
69.86500 55.000
70.11500 52.000
70.36500 50.000
70.61500 61.000
70.86500 54.000
71.11500 51.000
71.36500 65.000
71.61500 57.000
71.86500 53.000
72.11500 54.000
72.36500 57.000
72.61500 61.000
72.86500 59.000
73.11500 58.000
73.36500 55.000
73.61500 54.000
73.86500 52.000
74.11500 48.000
74.36500 61.000
74.61500 46.000
74.86500 67.000
75.11500 49.000
75.36500 57.000
75.61500 54.000
75.86500 69.000
76.11500 50.000
76.36500 73.000
76.61500 69.000
76.86500 54.000
77.11500 63.000
77.36500 52.000
77.61500 58.000
77.86500 56.000
78.11500 59.000
78.36500 61.000
78.61500 53.000
78.86500 58.000
79.11500 52.000
79.36500 77.000
79.61500 61.000
79.86500 48.000
80.11500 59.000
80.36500 54.000
80.61500 64.000
80.86500 61.000
81.11500 51.000
81.36500 54.000
81.61500 60.000
81.86500 54.000
82.11500 55.000
82.36500 46.000
82.61500 60.000
82.86500 63.000
83.11500 63.000
83.36500 54.000
83.61500 47.000
83.86500 58.000
84.11500 59.000
84.36500 64.000
84.61500 65.000
84.86500 62.000
85.11500 58.000
85.36500 57.000
85.61500 64.000
85.86500 63.000
86.11500 76.000
86.36500 64.000
86.61500 56.000
86.86500 56.000
87.11500 57.000
87.36500 59.000
87.61500 57.000
87.86500 43.000
88.11500 60.000
88.36500 50.000
88.61500 52.000
88.86500 61.000
89.11500 69.000
89.36500 59.000
89.61500 60.000
89.86500 63.000
90.11500 71.000
90.36500 72.000
90.61500 43.000
90.86500 53.000
91.11500 53.000
91.36500 58.000
91.61500 65.000
91.86500 61.000
92.11500 56.000
92.36500 47.000
92.61500 45.000
92.86500 49.000
93.11500 68.000
93.36500 62.000
93.61500 56.000
93.86500 51.000
94.11500 52.000
94.36500 41.000
94.61500 57.000
94.86500 54.000
95.11500 59.000
95.36500 64.000
95.61500 55.000
95.86500 64.000
96.11500 52.000
96.36500 64.000
96.61500 66.000
96.86500 73.000
97.11500 69.000
97.36500 42.000
97.61500 62.000
97.86500 61.000
98.11500 64.000
98.36500 59.000
98.61500 67.000
98.86500 55.000
99.11500 52.000
99.36500 56.000
99.61500 63.000
99.86500 71.000
100.115 58.000
100.365 56.000
100.615 65.000
100.865 53.000
101.115 57.000
101.365 52.000
101.615 80.000
101.865 54.000
102.115 59.000
102.365 49.000
102.615 60.000
102.865 62.000
103.115 54.000
103.365 56.000
103.615 51.000
103.865 61.000
104.115 53.000
104.365 67.000
104.615 54.000
104.865 47.000
105.115 70.000
105.365 44.000
105.615 66.000
105.865 61.000
106.115 59.000
106.365 63.000
106.615 53.000
106.865 61.000
107.115 61.000
107.365 57.000
107.615 56.000
107.865 56.000
108.115 53.000
108.365 60.000
108.615 68.000
108.865 52.000
109.115 60.000
109.365 61.000
109.615 61.000
109.865 57.000
110.115 64.000
110.365 57.000
110.615 71.000
110.865 62.000
111.115 49.000
111.365 66.000
111.615 78.000
111.865 58.000
112.115 53.000
112.365 62.000
112.615 76.000
112.865 65.000
113.115 78.000
113.365 60.000
113.615 65.000
113.865 62.000
114.115 68.000
114.365 56.000
114.615 59.000
114.865 75.000
115.115 84.000
115.365 60.000
115.615 67.000
115.865 54.000
116.115 67.000
116.365 81.000
116.615 67.000
116.865 65.000
117.115 60.000
117.365 64.000
117.615 61.000
117.865 62.000
118.115 60.000
118.365 62.000
118.615 60.000
118.865 71.000
119.115 63.000
119.365 74.000
119.615 68.000
119.865 69.000
120.115 78.000
120.365 64.000
120.615 59.000
120.865 67.000
121.115 63.000
121.365 61.000
121.615 69.000
121.865 69.000
122.115 45.000
122.365 68.000
122.615 55.000
122.865 54.000
123.115 67.000
123.365 51.000
123.615 59.000
123.865 54.000
124.115 64.000
124.365 76.000
124.615 64.000
124.865 59.000
125.115 61.000
125.365 57.000
125.615 73.000
125.865 90.000
126.115 60.000
126.365 57.000
126.615 68.000
126.865 75.000
127.115 77.000
127.365 62.000
127.615 75.000
127.865 52.000
128.115 69.000
128.365 63.000
128.615 70.000
128.865 65.000
129.115 75.000
129.365 73.000
129.615 73.000
129.865 69.000
130.115 79.000
130.365 59.000
130.615 74.000
130.865 58.000
131.115 76.000
131.365 73.000
131.615 63.000
131.865 63.000
132.115 63.000
132.365 49.000
132.615 61.000
132.865 85.000
133.115 68.000
133.365 71.000
133.615 76.000
133.865 70.000
134.115 77.000
134.365 69.000
134.615 75.000
134.865 61.000
135.115 81.000
135.365 62.000
135.615 68.000
135.865 74.000
136.115 71.000
136.365 72.000
136.615 57.000
136.865 74.000
137.115 72.000
137.365 77.000
137.615 67.000
137.865 73.000
138.115 68.000
138.365 81.000
138.615 62.000
138.865 73.000
139.115 73.000
139.365 69.000
139.615 56.000
139.865 93.000
140.115 68.000
140.365 84.000
140.615 80.000
140.865 60.000
141.115 64.000
141.365 69.000
141.615 62.000
141.865 80.000
142.115 73.000
142.365 75.000
142.615 83.000
142.865 78.000
143.115 77.000
143.365 64.000
143.615 74.000
143.765 59.000